time,acc_x,acc_y,acc_z,gyro_x,gyro_y,gyro_z
7280,-5.36,1.1,8.18,-0.02,0.13,-0.09
7281,-5.35,1.05,8.16,-0.05,0.1,-0.28
7282,-5.34,1.09,8.17,-0.02,0.01,-0.09
7283,-5.32,1.13,8.13,-0.05,0.04,0.01
7284,-5.34,1.11,8.14,-0.02,-0.12,-0.09
7286,-5.41,1.1,8.14,0.11,-0.09,-0.15
7287,-5.34,1.05,8.14,0.08,-0.02,0.01
7288,-5.3,1.08,8.14,-0.08,-0.09,0.01
7289,-5.4,1.07,8.15,-0.02,0.04,0.01
7290,-5.41,1.08,8.12,0.01,0.13,0.1
7291,-5.37,1.13,8.18,0.08,0.1,-0.06
7292,-5.36,1.13,8.19,0.01,0.01,0.01
7294,-5.35,1.07,8.15,0.14,-0.15,0.04
7295,-5.38,1.07,8.21,-0.02,-0.15,0.13
7296,-5.4,1.08,8.26,-0.11,0.04,-0.06
7297,-5.43,1.11,8.28,-0.2,0.1,-0.02
7298,-5.41,1.06,8.26,-0.17,0.04,0.1
7299,-5.41,1.04,8.2,0.01,-0.06,0.1
7300,-5.35,1.08,8.13,0.2,-0.09,0.07
7302,-5.3,1.05,8.19,0.01,0.04,0.01
7303,-5.35,1.04,8.18,0.05,0.1,-0.02
7304,-5.38,1.05,8.2,0.08,0.04,-0.09
7305,-5.29,1.11,8.18,0.08,0.07,-0.02
7306,-5.32,1.09,8.12,0.17,0.1,-0.06
7307,-5.36,1.04,8.07,-0.02,0.16,-0.09
7308,-5.38,1.14,8.14,-0.14,0.13,-0.09
7310,-5.39,1.13,8.15,-0.2,0.13,0.01
7311,-5.4,1.15,8.2,-0.24,0.35,0.07
7312,-5.39,1.12,8.21,-0.33,0.23,-0.12
7313,-5.3,1.12,8.22,-0.3,0.13,-0.06
7314,-5.26,1.1,8.16,0.01,0.07,-0.06
7315,-5.34,1.07,8.17,0.08,0.23,0.04
7316,-5.33,1.1,8.19,-0.17,0.29,0.07
7317,-5.35,1.09,8.21,-0.05,0.38,-0.12
7319,-5.37,1.03,8.22,-0.24,0.19,-0.02
7320,-5.35,1.07,8.09,-0.11,0.1,0.01
7321,-5.4,1.09,8.18,-0.14,0.1,0.07
7322,-5.41,1.06,8.18,0.05,0.32,0.07
7323,-5.36,1.12,8.09,0.01,0.19,-0.09
7324,-5.39,1.16,8.2,-0.11,0.07,0.04
7325,-5.44,1.12,8.16,-0.2,0.26,-0.06
7327,-5.41,1.1,8.15,-0.11,0.38,-0.09
7328,-5.36,1.1,8.17,-0.11,0.1,-0.15
7329,-5.36,1.1,8.2,-0.14,0.1,-0.21
7330,-5.41,1.05,8.17,-0.36,0.16,-0.12
7331,-5.38,1.08,8.22,-0.17,0.29,-0.06
7332,-5.41,1.1,8.17,0.08,0.13,0.01
7333,-5.38,1.04,8.08,0.26,0.23,0.01
7335,-5.39,1.07,8.27,0.05,0.16,-0.06
7336,-5.34,1.12,8.21,0.05,0.13,0.07
7337,-5.36,1.08,8.15,-0.14,0.07,0.19
7338,-5.35,1.12,8.12,-0.05,0.13,0.1
7339,-5.38,1.09,8.16,-0.05,0.19,0.07
7340,-5.37,1.07,8.17,-0.17,0.13,0.13
7341,-5.37,1.12,8.17,-0.14,0.13,0.01
7342,-5.35,1.09,8.12,-0.11,0.13,-0.06
7344,-5.36,1.09,7.99,-0.08,0.13,0.01
7345,-5.41,1.09,8.12,-0.14,0.16,-0.02
7346,-5.39,1.03,8.22,-0.05,0.19,0.13
7347,-5.4,1.09,8.18,-0.11,0.19,0.01
7348,-5.37,1.09,8.22,-0.2,0.35,-0.12
7349,-5.39,1.1,8.25,-0.33,0.38,-0.02
7350,-5.42,1.12,8.17,-0.27,0.29,0.13
7352,-5.38,1.08,8.14,-0.14,0.1,0.07
7353,-5.39,1.06,8.15,-0.08,0.04,0.07
7354,-5.39,1.09,8.15,-0.05,0.1,0.07
7355,-5.36,1.07,8.12,-0.24,-0.02,0.13
7356,-5.32,1.1,8.04,-0.27,-0.02,0.07
7357,-5.3,1.1,8.21,-0.08,0.23,0.01
7358,-5.32,1.06,8.12,-0.11,0.23,-0.02
7360,-5.36,1.1,8.13,0.01,0.13,0.01
7361,-5.33,1.08,8.21,-0.08,-0.02,0.13
7362,-5.39,1.03,8.22,-0.2,0.13,0.13
7363,-5.38,1.07,8.18,0.05,0.1,0.07
7364,-5.39,1.05,8.23,0.17,0.01,0.01
7365,-5.41,1.09,8.2,0.11,0.16,-0.02
7366,-5.37,1.13,8.16,-0.08,0.19,0.19
7368,-5.36,1.16,8.17,-0.17,0.23,0.19
7369,-5.37,1.11,8.19,-0.05,0.35,-0.15
7370,-5.34,1.13,8.16,-0.42,0.57,-0.4
7371,-5.41,1.21,8.13,-1.58,0.63,-0.12
7372,-5.39,1.12,8.06,-2.08,0.76,-0.02
7373,-5.43,1.07,8.08,-1.3,0.51,-0.15
7374,-5.37,0.99,8.2,-0.11,0.07,-0.21
7376,-5.46,1.03,8.16,0.05,0.07,0.04
7377,-5.5,1.07,8.16,-0.3,0.29,0.29
7378,-5.45,1.11,8.33,0.17,0.16,0.16
7379,-5.35,1.04,8.26,0.95,-0.18,-0.12
7380,-5.33,1.07,8.19,0.7,-0.31,-0.12
7381,-5.39,1.09,8.17,0.48,-0.09,0.1
7382,-5.37,1.07,8.17,0.61,0.07,-0.02
7384,-5.38,1.09,8.17,0.48,-0.09,0.01
7385,-5.36,1.14,8.14,0.01,-0.06,0.04
7386,-5.25,1.19,8.12,-0.27,0.16,-0.02
7387,-5.32,1.07,8.06,-0.14,0.07,0.01
7388,-5.35,1.13,8.05,-0.2,0.01,-0.02
7389,-5.38,1.1,8.17,-0.27,-0.02,-0.12
7390,-5.4,1.1,8.16,-0.02,0.04,-0.06
7392,-5.37,1.1,8.24,0.08,-0.06,-0.09
7393,-5.31,1.15,8.29,0.14,-0.09,-0.02
7394,-5.36,1.04,8.26,0.11,0.1,0.1
7395,-5.4,1.06,8.18,0.2,0.13,-0.02
7396,-5.36,1.07,8.13,0.3,-0.06,-0.12
7397,-5.35,1.06,8.14,0.2,-0.21,-0.06
7398,-5.38,1.08,8.18,0.14,-0.09,0.19
7400,-5.35,1.13,8.21,0.17,0.13,0.26
7401,-5.38,1.07,8.17,0.17,-0.02,-0.06
7402,-5.33,1.08,8.16,0.08,0.01,0.04
7403,-5.33,1.08,8.1,-0.17,0.29,0.07
7404,-5.32,1.08,8.06,0.05,0.07,0.13
7405,-5.38,1.07,8.14,0.05,-0.02,-0.02
7406,-5.35,1.11,8.12,-0.08,-0.09,-0.06
7407,-5.35,1.1,8.12,-0.2,-0.02,-0.09
7409,-5.34,1.06,8.15,-0.02,0.16,0.04
7410,-5.32,1.06,8.16,-0.08,0.13,0.01
7411,-5.36,1.03,8.11,-0.11,0.04,0.07
7412,-5.38,1.08,8.22,0.08,-0.12,0.04
7413,-5.38,1.11,8.23,0.23,0.01,0.04
7414,-5.33,1.05,8.13,0.26,0.04,0.19
7415,-5.3,1.11,8.09,0.26,-0.09,0.07
7417,-5.35,1.13,8.08,0.08,0.07,-0.15
7418,-5.41,1.14,8.1,-0.08,0.29,-0.18
7419,-5.4,1.08,8.13,-0.14,0.04,-0.09
7420,-5.41,1.15,8.08,-0.11,-0.21,0.04
7421,-5.35,1.08,8.16,-0.05,0.1,0.07
7422,-5.41,1.08,8.17,-0.08,0.26,0.07
7423,-5.41,1.07,8.17,-0.24,0.07,-0.09
7425,-5.38,1.05,8.17,-0.17,0.04,-0.02
7426,-5.41,1.02,8.19,-0.08,-0.06,-0.02
7427,-5.42,1.05,8.17,0.11,0.07,-0.09
7428,-5.4,1.03,8.12,0.14,-0.09,-0.02
7429,-5.37,1.05,8.07,0.11,-0.06,0.01
7430,-5.37,1.06,8.08,0.05,0.04,-0.02
7431,-5.41,1.11,7.97,-0.11,0.1,-0.09
7433,-5.37,1.1,8.1,-0.11,0.04,0.04
7434,-5.38,1.13,8.3,-0.08,0.04,0.07
7435,-5.34,1.09,8.1,0.05,0.07,-0.06
7436,-5.4,1.08,8.12,0.11,0.1,-0.06
7437,-5.35,1.11,8.16,0.01,0.16,-0.06
7438,-5.38,1.11,8.12,0.01,0.16,-0.18
7439,-5.34,1.08,8.05,0.05,0.38,-0.28
7441,-5.44,1.03,8.08,0.05,0.45,-0.15
7442,-5.41,1.08,8.12,-0.17,0.23,-0.12
7443,-5.41,1.08,8.22,-0.27,0.13,-0.06
7444,-5.41,1.1,8.23,-0.11,-0.02,-0.09
7445,-5.37,1.05,8.25,-0.05,-0.02,0.01
7446,-5.34,1.08,8.11,0.17,0.01,0.13
7447,-5.37,1.07,8.16,0.23,0.13,0.04
7449,-5.4,1.05,8.25,0.01,0.19,-0.02
7450,-5.35,1.11,8.16,-0.11,0.07,-0.09
7451,-5.33,1.08,8.16,-0.2,0.01,0.13
7452,-5.33,1.06,8.15,-0.08,0.07,-0.09
7453,-5.42,1.09,8.21,-0.08,0.16,0.1
7454,-5.42,1.09,8.16,-0.05,0.13,0.1
7455,-5.33,1.09,8.12,-0.14,-0.02,-0.06
7457,-5.32,1.07,8.09,-0.05,0.07,0.01
7458,-5.41,1.08,8.13,-0.02,0.07,-0.06
7459,-5.33,1.1,8.17,0.14,0.1,-0.02
7460,-5.37,1.11,8.17,0.05,0.16,0.04
7461,-5.38,1.09,8.08,-0.14,0.16,-0.02
7462,-5.36,1.06,8.11,-0.08,0.13,-0.12
7463,-5.36,1.15,8.22,-0.11,0.07,0.01
7465,-5.4,1.13,8.17,-0.14,0.13,0.19
7466,-5.38,1.08,8.02,-0.3,0.07,0.07
7467,-5.41,1.04,8.08,-0.2,0.16,-0.06
7468,-5.42,1.07,8.07,0.01,0.19,-0.09
7469,-5.37,1.1,8.12,-0.14,0.29,-0.06
7470,-5.36,1.08,8.05,-0.24,0.13,-0.02
7471,-5.38,1.04,8.07,-0.2,0.07,-0.06
7473,-5.36,1.09,8.13,-0.2,0.23,0.01
7474,-5.4,1.12,8.15,-0.14,0.1,-0.15
7475,-5.36,1.09,8.18,-0.24,-0.06,-0.12
7476,-5.36,1.06,8.18,-0.24,0.07,-0.06
7477,-5.37,1.06,8.1,-0.14,0.19,-0.02
7478,-5.33,1.05,8.18,-0.27,0.13,0.01
7479,-5.37,1.07,8.2,-0.33,0.01,0.04
7481,-5.38,1.1,8.11,-0.27,-0.09,-0.09
7482,-5.38,1.05,8.19,-0.11,0.13,-0.09
7483,-5.37,1.08,8.14,0.14,0.1,-0.12
7484,-5.35,1.06,8.18,0.11,0.1,-0.15
7485,-5.39,1.0,8.15,-0.3,0.19,-0.12
7486,-5.35,1.03,8.17,-0.2,0.01,-0.06
7487,-5.37,1.08,8.22,-0.11,-0.09,-0.06
7489,-5.39,1.08,8.12,-0.17,-0.06,0.01
7490,-5.34,1.1,8.17,-0.3,0.13,-0.02
7491,-5.33,1.13,8.17,-0.33,0.38,-0.06
7492,-5.4,1.11,8.25,-0.17,0.26,0.04
7493,-5.38,1.07,8.17,-0.14,0.23,0.07
7494,-5.34,1.08,8.11,-0.3,0.23,0.01
7495,-5.36,1.15,8.15,-0.39,0.13,-0.06
7497,-5.39,1.04,8.22,-0.27,0.01,0.1
7498,-5.38,1.05,8.17,-0.02,0.04,0.01
7499,-5.41,1.1,8.15,-0.11,0.1,-0.18
7500,-5.37,1.01,8.13,-0.24,0.07,-0.06
7501,-5.37,1.04,8.14,-0.11,-0.18,-0.09
7502,-5.43,1.1,8.21,-0.2,-0.06,-0.02
7504,-5.39,1.1,8.15,-0.33,0.13,0.19
7505,-5.34,1.09,8.23,-0.33,0.23,0.04
7506,-5.35,1.06,8.12,-0.24,0.13,0.13
7507,-5.33,1.06,8.12,-0.2,0.04,0.1
7508,-5.3,1.08,8.08,-0.2,0.01,-0.02
7509,-5.36,1.08,8.11,-0.08,0.16,-0.12
7510,-5.39,1.08,8.25,-0.11,0.1,-0.09
7511,-5.36,1.07,8.12,-0.08,0.16,-0.06
7513,-5.34,1.1,8.12,-0.11,0.19,-0.09
7514,-5.33,1.12,8.18,-0.36,0.07,-0.12
7515,-5.31,1.13,8.11,-0.39,0.1,-0.09
7516,-5.4,1.07,8.15,-0.24,0.13,-0.06
7517,-5.38,1.06,8.1,-0.02,0.23,-0.09
7518,-5.41,1.12,8.17,-0.14,0.23,0.04
7519,-5.39,1.13,8.11,-0.2,0.04,0.1
7520,-5.32,1.06,8.12,-0.14,0.26,0.01
7522,-5.4,1.11,8.14,-0.08,0.26,0.01
7523,-5.42,1.13,8.15,-0.36,0.29,0.1
7524,-5.42,1.06,8.17,-0.39,0.26,0.1
7525,-5.37,1.09,8.2,-0.24,0.13,-0.06
7526,-5.35,1.05,8.15,-0.27,0.16,-0.12
7527,-5.36,1.06,8.18,-0.33,0.29,-0.12
7528,-5.36,1.07,8.26,-0.36,0.13,-0.02
7530,-5.38,1.05,8.25,-0.39,0.01,-0.12
7531,-5.4,1.05,8.22,-0.14,0.07,-0.02
7532,-5.41,1.1,8.15,-0.11,0.04,0.04
7533,-5.42,1.03,8.14,-0.2,0.1,-0.09
7534,-5.41,1.1,8.16,-0.24,0.32,-0.09
7535,-5.34,1.12,8.14,-0.24,0.38,-0.21
7536,-5.35,1.16,8.14,-0.17,0.1,-0.12
7538,-5.33,1.15,8.14,-0.27,-0.09,0.04
7539,-5.36,1.03,8.23,-0.2,-0.02,-0.06
7540,-5.36,1.1,8.14,-0.2,0.19,-0.02
7541,-5.37,1.11,8.16,-0.08,0.16,0.01
7542,-5.39,1.17,8.2,-0.05,0.19,0.01
7543,-5.37,1.08,8.18,-0.11,0.1,-0.21
7545,-5.33,1.04,8.17,-0.24,0.04,-0.21
7546,-5.31,1.02,8.18,-0.3,0.29,-0.06
7547,-5.38,1.03,8.14,-0.05,0.04,0.04
7548,-5.32,1.12,8.08,-0.17,0.13,-0.02
7549,-5.36,1.1,8.12,-0.27,0.32,-0.18
7550,-5.42,1.09,8.23,-0.27,0.26,-0.18
7551,-5.39,1.07,8.07,-0.3,0.19,-0.18
7553,-5.37,1.03,8.09,-0.42,0.01,0.01
7554,-5.35,1.03,8.17,-0.36,0.01,0.01
7555,-5.38,1.1,8.15,-0.14,0.13,0.1
7556,-5.36,1.08,8.28,0.08,0.19,0.13
7557,-5.36,1.06,8.14,-0.05,0.13,0.01
7558,-5.37,1.09,8.17,-0.08,0.04,-0.12
7559,-5.4,1.1,8.19,-0.24,0.07,-0.12
7560,-5.35,1.07,8.15,-0.24,0.07,0.04
7562,-5.36,1.07,8.11,-0.05,-0.09,-0.06
7563,-5.35,1.08,8.2,0.01,0.07,-0.12
7564,-5.35,1.08,8.09,-0.2,0.01,-0.06
7565,-5.35,1.04,8.16,-0.3,0.1,0.04
7566,-5.37,1.01,8.16,-0.17,0.13,-0.18
7567,-5.41,1.07,8.19,0.01,0.07,-0.02
7568,-5.39,1.03,8.13,0.01,0.13,-0.06
7570,-5.37,1.07,8.11,-0.11,0.16,-0.21
7571,-5.39,1.1,8.13,-0.27,0.01,-0.12
7572,-5.32,1.1,8.1,-0.11,-0.02,0.01
7573,-5.34,1.14,8.11,-0.14,0.01,0.04
7574,-5.33,1.09,8.16,-0.17,0.1,-0.02
7575,-5.33,1.07,8.24,-0.27,0.13,-0.06
7576,-5.35,1.07,8.22,-0.17,-0.12,-0.18
7578,-5.34,1.14,8.18,-0.27,-0.06,-0.18
7579,-5.34,1.05,8.15,-0.14,0.01,-0.06
7580,-5.39,1.05,8.17,-0.11,0.04,-0.21
7581,-5.35,1.07,8.13,0.01,-0.09,-0.15
7582,-5.33,1.13,8.19,0.08,0.01,-0.15
7583,-5.36,1.08,8.21,-0.05,0.35,-0.15
7585,-5.4,1.1,8.12,-0.17,0.07,-0.18
7586,-5.35,1.08,8.11,-0.02,-0.15,-0.09
7587,-5.38,1.07,8.08,0.01,0.13,0.04
7588,-5.33,1.06,8.15,-0.05,0.16,0.04
7589,-5.33,1.12,8.23,-0.3,0.1,0.07
7590,-5.34,1.13,8.16,-0.33,0.26,0.16
7591,-5.39,1.13,8.14,-0.14,0.23,-0.18
7593,-5.36,1.12,8.16,-0.11,0.07,-0.24
7594,-5.41,1.14,8.16,-0.2,0.13,-0.28
7595,-5.36,1.09,8.09,-0.27,-0.02,-0.12
7596,-5.34,1.08,8.12,-0.2,0.13,0.04
7597,-5.34,1.1,8.17,0.01,0.23,-0.09
7598,-5.36,1.09,8.13,-0.08,0.19,-0.15
7599,-5.35,1.11,8.16,-0.24,0.13,-0.09
7600,-5.37,1.07,8.17,-0.33,0.19,-0.18
7602,-5.38,1.13,8.15,-0.24,0.13,-0.15
7603,-5.4,1.07,8.15,-0.27,0.01,-0.06
7604,-5.39,1.1,8.09,-0.3,-0.09,-0.12
7605,-5.39,1.08,8.13,-0.27,0.07,-0.21
7606,-5.4,1.03,8.18,-0.11,0.19,-0.24
7607,-5.33,1.1,8.27,-0.11,0.13,-0.12
7609,-5.38,1.05,8.26,-0.14,0.1,0.07
7610,-5.43,1.04,8.16,-0.11,0.16,0.04
7611,-5.41,1.05,8.19,-0.02,0.19,0.01
7612,-5.39,1.01,8.06,-0.14,0.23,0.07
7613,-5.34,1.03,8.16,-0.08,0.16,0.01
7614,-5.33,1.01,8.09,0.01,0.01,0.01
7615,-5.41,1.01,8.13,-0.08,0.26,-0.02
7616,-5.41,1.07,8.21,-0.02,0.04,-0.02
7618,-5.4,1.12,8.14,-0.02,-0.21,-0.02
7619,-5.35,1.08,8.15,-0.14,-0.06,-0.02
7620,-5.36,1.05,8.19,-0.02,-0.12,-0.02
7621,-5.28,1.06,8.18,0.08,0.01,-0.02
7622,-5.36,1.05,8.2,-0.08,-0.02,-0.15
7623,-5.44,1.05,8.11,-0.11,0.07,-0.12
7625,-5.34,1.12,8.13,-0.08,0.07,0.1
7626,-5.28,1.08,8.17,-0.08,0.04,-0.02
7627,-5.4,1.05,8.11,0.01,0.07,-0.06
7628,-5.32,1.07,8.11,-0.14,0.07,-0.09
7629,-5.31,1.03,8.17,-0.05,0.1,-0.09
7630,-5.33,1.09,8.14,-0.08,0.16,-0.02
7631,-5.38,1.15,8.1,-0.14,0.04,0.01
7633,-5.44,1.11,8.11,-0.05,0.04,-0.18
7634,-5.36,1.09,8.11,0.11,0.16,-0.09
7635,-5.4,1.14,8.15,-0.17,0.13,-0.02
7636,-5.36,1.12,8.13,-0.17,0.16,-0.02
7637,-5.37,1.06,8.17,-0.24,0.07,-0.06
7638,-5.33,1.1,8.12,-0.3,0.04,-0.06
7639,-5.39,1.15,8.11,-0.17,-0.06,-0.21
7641,-5.43,1.18,8.19,-0.05,0.04,-0.21
7642,-5.41,1.12,8.16,-0.05,0.16,-0.02
7643,-5.35,1.05,8.14,-0.02,0.13,-0.02
7644,-5.44,1.09,8.1,-0.17,0.04,-0.09
7645,-5.45,1.09,8.11,-0.14,0.13,-0.02
7646,-5.37,1.12,8.22,-0.14,-0.02,0.04
7648,-5.38,1.05,8.15,-0.2,-0.27,0.07
7649,-5.36,1.09,8.13,-0.33,-0.21,0.13
7650,-5.39,1.07,8.11,-0.02,-0.09,-0.09
7651,-5.37,1.11,8.16,-0.02,-0.09,-0.06
7652,-5.4,1.06,8.21,-0.02,0.01,-0.06
7653,-5.42,1.07,8.14,0.08,-0.02,-0.06
7654,-5.42,1.08,8.14,0.17,0.07,-0.15
7656,-5.42,1.1,8.17,0.01,0.23,-0.02
7657,-5.42,1.11,8.1,0.01,-0.02,0.04
7658,-5.36,1.1,8.22,-0.08,-0.21,-0.21
7659,-5.34,1.11,8.17,-0.11,-0.15,-0.12
7660,-5.33,1.1,8.17,0.01,-0.02,0.04
7661,-5.37,1.04,8.14,0.26,0.1,-0.09
7662,-5.4,1.09,8.18,0.26,0.01,0.26
7664,-5.32,1.11,8.18,0.45,-0.09,0.26
7665,-5.31,1.07,8.23,0.67,-0.15,0.26
7666,-5.34,0.98,8.24,1.39,-0.12,0.32
7667,-5.31,0.92,8.3,2.02,-0.21,0.32
7668,-5.36,0.95,8.33,2.39,-0.21,0.26
7669,-5.41,0.99,8.19,2.86,-0.21,0.38
7670,-5.43,0.94,8.29,3.24,-0.62,0.51
7671,-5.45,0.96,8.21,3.02,-0.59,0.48
7673,-5.4,1.12,8.18,2.71,-0.74,0.44
7674,-5.34,1.16,8.17,2.36,-0.74,0.29
7675,-5.36,1.16,8.15,1.86,-0.65,0.13
7676,-5.37,1.1,8.17,1.45,-0.4,0.26
7677,-5.32,1.12,8.11,1.08,-0.18,0.38
7678,-5.29,1.07,8.13,0.95,-0.15,0.13
7679,-5.35,1.12,8.04,0.8,0.04,0.01
7680,-5.35,1.09,7.99,0.36,0.1,0.04
7682,-5.34,1.11,8.11,0.14,0.13,0.1
7683,-5.35,1.1,8.13,0.26,0.1,0.1
7684,-5.37,1.11,8.15,0.33,-0.12,0.1
7685,-5.34,1.07,8.2,0.36,-0.18,0.04
7686,-5.38,1.11,8.13,0.36,-0.12,-0.06
7687,-5.33,1.08,8.15,0.51,0.01,-0.28
7688,-5.38,1.1,8.14,0.3,-0.09,-0.15
7690,-5.42,1.13,8.14,0.23,-0.21,-0.02
7691,-5.42,1.15,8.2,0.2,-0.06,-0.06
7692,-5.41,1.11,8.13,0.14,-0.02,0.01
7693,-5.4,1.07,8.13,-0.02,0.04,-0.02
7694,-5.35,1.15,8.14,0.01,0.13,0.07
7695,-5.35,1.09,8.1,-0.14,-0.02,0.16
7696,-5.34,1.07,8.13,-0.33,0.13,0.04
7698,-5.32,1.1,8.13,-0.27,0.26,-0.02
7699,-5.28,1.06,8.11,-0.11,0.1,-0.06
7700,-5.4,1.08,8.08,-0.24,-0.06,0.07
7701,-5.4,1.08,8.1,-0.17,-0.06,-0.02
7702,-5.37,1.07,8.15,-0.2,-0.15,-0.12
7703,-5.33,1.1,8.17,-0.08,0.07,-0.12
7704,-5.4,1.12,8.17,-0.27,0.13,0.16
7706,-5.39,1.07,8.13,-0.14,-0.06,0.07
7707,-5.3,1.06,8.14,0.11,0.07,0.01
7708,-5.27,1.04,8.18,0.17,0.16,0.01
7709,-5.4,1.02,8.09,0.2,0.04,-0.12
7710,-5.42,1.02,8.05,0.14,0.07,-0.06
7711,-5.39,1.04,8.09,-0.05,-0.02,0.04
7712,-5.35,1.1,8.14,-0.14,-0.09,0.07
7713,-5.31,1.07,8.13,-0.08,-0.06,-0.06
7715,-5.35,1.09,8.15,-0.05,0.07,-0.18
7716,-5.34,1.07,8.16,-0.02,0.35,-0.06
7717,-5.34,1.1,8.06,-0.27,0.16,0.04
7718,-5.38,1.1,8.08,-0.2,-0.12,-0.06
7719,-5.33,1.09,8.12,0.05,0.07,-0.06
7720,-5.32,1.1,8.08,0.2,0.32,0.01
7721,-5.38,1.1,8.05,0.05,0.16,0.13
7723,-5.35,1.05,8.13,-0.11,0.01,0.1
7724,-5.33,1.05,8.19,0.05,-0.06,-0.02
7725,-5.33,1.07,8.17,-0.11,-0.12,-0.06
7726,-5.38,1.11,8.16,-0.42,0.01,-0.09
7727,-5.36,1.1,8.15,-0.36,0.29,0.13
7728,-5.39,1.08,8.1,-0.27,0.16,0.01
7729,-5.37,1.01,8.09,-0.33,0.07,-0.09
7731,-5.45,1.02,8.17,-0.3,0.13,-0.09
7732,-5.38,1.05,8.09,-0.2,-0.02,-0.02
7733,-5.41,1.05,8.17,-0.2,0.01,0.07
7734,-5.45,1.07,8.13,-0.2,0.07,0.07
7735,-5.42,1.04,8.08,-0.02,0.04,-0.02
7736,-5.41,1.03,8.12,0.11,0.1,-0.06
7738,-5.41,1.02,8.17,0.08,0.1,-0.12
7739,-5.4,1.01,8.17,-0.11,0.1,-0.18
7740,-5.39,1.07,8.13,-0.11,0.1,-0.09
7741,-5.4,1.11,8.2,0.14,0.1,-0.06
7742,-5.42,1.12,8.17,0.01,0.32,0.01
7743,-5.42,1.14,8.21,-0.3,0.32,0.04
7744,-5.39,1.15,8.23,-0.36,0.01,0.01
7745,-5.35,1.13,8.1,-0.3,-0.24,-0.12
7747,-5.37,1.08,8.15,-0.17,-0.15,-0.15
7748,-5.37,1.09,8.22,-0.05,0.1,-0.15
7749,-5.34,1.14,8.06,0.11,0.01,0.23
7750,-5.34,1.11,8.09,0.2,-0.06,0.13
7751,-5.36,1.13,8.07,0.17,-0.06,-0.06
7752,-5.37,1.16,8.11,0.14,-0.09,0.01
7753,-5.44,1.14,8.1,0.01,-0.06,0.16
7755,-5.39,1.08,8.1,-0.08,0.1,0.01
7756,-5.38,1.12,8.12,-0.2,0.07,0.01
7757,-5.36,1.11,8.16,-0.14,0.04,0.1
7758,-5.36,1.05,8.12,-0.33,0.01,0.01
7759,-5.36,1.04,8.16,-0.33,0.01,-0.12
7760,-5.37,1.04,8.11,-0.17,-0.09,0.07
7761,-5.32,1.04,8.11,-0.02,-0.09,-0.02
7763,-5.39,1.08,8.08,-0.02,0.07,0.04
7764,-5.38,1.02,8.08,-0.05,0.01,-0.02
7765,-5.35,1.06,8.18,-0.08,0.1,-0.12
7766,-5.32,1.05,8.29,-0.02,0.1,0.07
7767,-5.38,1.08,8.19,-0.02,0.01,-0.18
7768,-5.36,1.09,8.17,-0.05,-0.02,-0.18
7769,-5.35,1.06,8.14,-0.02,-0.02,-0.12
7771,-5.36,1.06,8.13,0.14,0.01,-0.06
7772,-5.38,1.07,8.18,-0.08,-0.09,-0.02
7773,-5.31,1.09,8.09,-0.05,-0.21,0.01
7774,-5.34,1.07,8.14,0.11,0.07,-0.06
7775,-5.35,1.08,8.14,-0.05,0.23,-0.09
7776,-5.38,1.07,8.09,-0.02,0.1,-0.06
7778,-5.36,1.0,8.06,-0.02,0.13,-0.12
7779,-5.39,1.08,8.16,-0.11,0.01,-0.12
7780,-5.38,1.02,8.1,-0.33,-0.06,-0.18
7781,-5.37,1.1,8.09,0.14,0.19,-0.24
7782,-5.35,1.06,8.17,0.2,0.23,-0.15
7783,-5.37,1.07,8.15,0.08,0.29,-0.06
7784,-5.36,1.11,8.22,-0.11,0.29,-0.21
7786,-5.31,1.1,8.25,-0.2,0.13,-0.21
7787,-5.37,1.07,8.28,0.01,0.23,0.04
7788,-5.4,1.05,8.19,-0.08,0.16,0.01
7789,-5.4,1.06,8.1,-0.24,-0.09,-0.12
7790,-5.36,1.05,8.1,-0.14,-0.02,-0.12
7791,-5.4,1.07,8.09,0.11,0.26,-0.09
7792,-5.37,1.06,8.18,-0.02,0.32,0.07
7794,-5.37,1.03,8.14,-0.02,0.35,-0.02
7795,-5.37,1.04,8.19,0.05,0.16,-0.02
7796,-5.35,1.06,8.13,0.11,0.07,-0.09
7797,-5.37,1.08,8.13,-0.02,0.04,0.01
7798,-5.4,1.08,8.18,0.14,0.01,0.01
7799,-5.33,1.07,8.12,0.08,-0.15,-0.02
7800,-5.37,1.07,8.11,0.23,0.04,-0.02
7802,-5.4,1.08,8.15,-0.05,0.04,-0.06
7803,-5.37,1.1,8.14,-0.17,0.04,0.04
7804,-5.42,1.02,8.14,-0.11,0.13,-0.15
7805,-5.38,1.05,8.11,-0.08,0.1,-0.15
7806,-5.37,1.05,8.09,-0.11,0.07,-0.06
7807,-5.31,1.07,8.15,-0.02,0.04,0.04
7808,-5.39,1.04,8.21,-0.17,-0.09,0.16
7810,-5.42,1.07,8.15,-0.08,0.04,0.23
7811,-5.35,1.11,8.17,-0.14,0.01,-0.02
7812,-5.38,1.07,8.14,-0.2,0.01,-0.02
7813,-5.32,1.09,8.23,-0.14,0.29,-0.09
7814,-5.39,1.07,8.22,-0.14,0.01,-0.06
7815,-5.39,1.07,8.18,-0.27,0.13,-0.15
7816,-5.33,1.06,8.09,-0.14,-0.02,-0.15
7818,-5.31,1.1,8.09,-0.24,0.23,-0.06
7819,-5.36,1.11,8.07,-0.3,0.16,0.1
7820,-5.45,1.02,8.21,-0.2,0.29,-0.09
7821,-5.35,1.09,8.14,-0.17,-0.09,-0.15
7822,-5.28,1.13,8.17,0.14,0.1,-0.06
7823,-5.31,1.1,8.14,-0.08,0.16,-0.09
7825,-5.31,1.15,8.1,-0.05,0.26,-0.12
7826,-5.34,1.09,8.14,-0.2,0.07,-0.02
7827,-5.35,1.14,8.13,-0.17,0.07,-0.02
7828,-5.39,1.1,8.14,-0.14,0.04,-0.12
7829,-5.37,1.12,8.19,-0.08,-0.12,0.07
7830,-5.38,1.09,8.18,-0.05,-0.12,-0.06
7831,-5.35,1.1,8.12,-0.14,-0.18,-0.24
7833,-5.34,1.07,8.15,0.01,0.13,-0.21
7834,-5.33,1.07,8.14,-0.17,0.01,-0.09
7835,-5.4,1.05,8.2,-0.05,0.16,-0.15
7836,-5.36,1.1,8.19,-0.27,0.19,-0.18
7837,-5.31,1.08,8.23,-0.14,0.1,-0.15
7838,-5.32,1.08,8.25,-0.02,0.16,-0.15
7839,-5.33,1.05,8.25,-0.2,-0.09,-0.15
7841,-5.37,1.05,8.15,-0.02,0.01,-0.09
7842,-5.38,1.11,8.14,-0.08,-0.12,0.07
7843,-5.33,1.09,8.19,0.14,0.16,-0.02
7844,-5.38,1.09,8.12,-0.05,-0.31,0.01
7845,-5.35,1.1,8.12,0.2,-0.12,0.07
7846,-5.32,1.12,8.18,0.2,0.45,-0.02
7847,-5.34,1.09,8.18,-0.3,0.13,0.07
7849,-5.35,1.11,8.16,-0.36,-0.02,-0.02
7850,-5.34,1.14,8.25,-0.3,0.1,-0.12
7851,-5.29,1.07,8.18,-0.24,-0.06,-0.21
7852,-5.33,1.07,8.16,-0.2,0.16,-0.21
7853,-5.36,1.06,8.13,-0.14,0.04,-0.09
7854,-5.37,1.04,8.13,0.05,0.16,-0.15
7856,-5.4,1.07,8.14,-0.49,0.1,-0.24
7857,-5.39,1.12,8.14,-0.3,0.32,-0.24
7858,-5.41,1.1,8.05,-0.24,0.35,-0.15
7859,-5.41,1.13,8.09,-0.08,0.19,0.16
7860,-5.36,1.06,8.14,-0.17,0.07,0.04
7861,-5.4,1.06,8.17,-0.24,-0.24,-0.09
7862,-5.37,1.04,8.16,-0.17,0.07,-0.21
7863,-5.39,1.06,8.11,-0.14,-0.02,-0.06
7865,-5.36,1.05,8.14,-0.05,-0.06,0.01
7866,-5.42,1.13,8.16,-0.17,0.01,-0.06
7867,-5.38,0.99,8.1,-0.3,-0.18,-0.09
7868,-5.4,1.01,8.17,-0.14,-0.15,0.01
7869,-5.38,1.02,8.21,-0.14,0.07,0.16
7870,-5.38,1.02,8.18,0.23,0.35,0.19
7872,-5.37,1.0,8.17,0.14,0.1,0.16
7873,-5.35,1.0,8.13,0.36,0.01,0.29
7874,-5.38,1.01,8.14,0.86,0.16,0.32
7875,-5.35,0.94,8.11,1.3,0.07,0.32
7876,-5.39,0.95,8.16,1.61,-0.21,0.23
7877,-5.4,0.98,8.18,2.24,-0.46,0.29
7878,-5.35,1.02,8.26,2.67,-0.09,0.48
7879,-5.41,0.99,8.32,2.67,-0.21,0.57
7880,-5.42,1.02,8.24,2.96,-0.37,0.48
7882,-5.36,1.11,8.16,2.64,-0.62,0.44
7883,-5.36,1.05,8.15,2.3,-0.49,0.38
7884,-5.37,1.12,8.03,1.8,-0.34,0.41
7885,-5.32,1.14,8.1,1.39,-0.34,0.48
7886,-5.29,1.09,8.11,1.33,-0.15,0.48
7887,-5.32,1.12,8.05,0.83,-0.4,0.26
7888,-5.34,1.14,8.04,0.92,-0.15,0.26
7890,-5.32,1.14,8.13,0.7,0.07,0.13
7891,-5.38,1.09,8.14,0.64,-0.02,0.01
7892,-5.39,1.15,8.11,0.7,0.16,-0.06
7893,-5.37,1.14,8.19,0.39,-0.27,0.16
7894,-5.39,1.09,8.2,0.48,-0.31,0.07
7895,-5.38,1.04,8.19,0.26,-0.24,0.07
7896,-5.35,1.09,8.22,0.11,-0.27,0.13
7897,-5.37,1.12,8.1,0.14,0.04,0.01
7899,-5.32,1.12,8.1,-0.11,0.01,-0.02
7900,-5.33,1.15,8.17,-0.24,-0.15,-0.09
7901,-5.38,1.12,8.13,-0.27,0.01,-0.12
7902,-5.37,1.13,8.08,-0.27,0.07,-0.09
7903,-5.32,1.12,8.11,-0.2,0.35,0.04
7904,-5.37,1.05,8.17,-0.52,0.04,-0.06
7905,-5.41,1.07,8.19,-0.39,0.01,-0.21
7907,-5.43,1.06,8.19,-0.27,0.07,-0.18
7908,-5.39,1.07,8.18,-0.17,-0.09,-0.06
7909,-5.39,1.06,8.2,-0.14,0.01,-0.12
7910,-5.37,1.04,8.23,-0.49,0.13,-0.31
7911,-5.35,1.05,8.17,-0.58,0.32,-0.31
7912,-5.39,1.05,8.15,-0.46,-0.09,-0.15
7913,-5.35,1.06,8.22,-0.36,-0.18,0.01
7915,-5.31,1.06,8.14,-0.52,-0.21,-0.31
7916,-5.33,1.04,8.16,-0.52,0.01,-0.24
7917,-5.38,1.09,8.19,-0.46,0.1,-0.18
7918,-5.39,1.09,8.19,-0.3,0.1,-0.18
7919,-5.4,1.11,8.27,-0.33,0.04,-0.06
7920,-5.34,1.07,8.28,-0.61,0.04,0.04
7922,-5.34,1.07,8.24,-0.3,0.01,-0.24
7923,-5.39,1.08,8.14,-0.36,-0.02,-0.12
7924,-5.33,1.09,8.18,-0.33,-0.09,-0.09
7925,-5.37,1.02,8.15,-0.27,0.13,-0.21
7926,-5.38,1.04,8.2,-0.36,-0.06,-0.12
7927,-5.36,1.07,8.16,-0.3,-0.06,-0.02
7928,-5.34,1.1,8.17,-0.2,-0.06,-0.09
7930,-5.4,1.12,8.18,0.05,-0.15,-0.09
7931,-5.36,1.05,8.12,0.05,-0.15,0.01
7932,-5.39,1.1,8.09,-0.02,-0.09,-0.06
7933,-5.34,1.12,8.15,-0.08,0.04,0.04
7934,-5.34,1.07,8.17,0.01,0.1,0.16
7935,-5.37,1.09,8.25,0.05,-0.06,-0.12
7936,-5.38,1.05,8.16,0.2,0.01,-0.15
7938,-5.38,1.05,8.15,0.14,0.16,-0.06
7939,-5.41,1.05,8.14,0.23,0.32,0.01
7940,-5.33,1.12,8.1,0.39,0.01,0.07
7941,-5.34,1.02,8.23,0.36,-0.18,0.01
7942,-5.4,1.05,8.27,0.23,-0.24,0.01
7943,-5.41,1.05,8.13,0.36,-0.24,0.01
7944,-5.4,1.08,8.15,0.17,-0.21,-0.06
7945,-5.37,1.06,8.13,0.05,-0.02,-0.02
7947,-5.4,1.1,8.12,0.01,-0.18,-0.09
7948,-5.36,1.1,8.15,0.2,-0.21,-0.09
7949,-5.37,1.12,8.12,0.08,-0.18,-0.09
7950,-5.37,1.14,8.16,-0.14,-0.4,-0.09
7951,-5.34,1.11,8.18,-0.17,-0.21,-0.06
7952,-5.38,1.15,8.15,-0.11,-0.15,-0.31
7954,-5.39,1.11,8.16,-0.52,-0.24,-0.28
7955,-5.38,1.14,8.2,-0.61,0.07,-0.28
7956,-5.39,1.09,8.12,-0.61,0.13,-0.34
7957,-5.39,1.07,8.1,-0.46,0.26,-0.37
7958,-5.34,1.13,8.15,-0.42,0.23,-0.21
7959,-5.25,1.11,8.17,-0.39,-0.06,-0.12
7960,-5.35,1.1,8.17,-0.27,-0.15,-0.12
7962,-5.41,1.05,8.17,-0.24,0.04,-0.18
7963,-5.42,1.1,8.12,-0.39,0.01,-0.21
7964,-5.36,1.04,8.23,-0.42,0.23,-0.24
7965,-5.35,1.07,8.18,-0.46,0.13,-0.24
7966,-5.32,1.12,8.14,-0.74,0.01,-0.28
7967,-5.45,1.09,8.16,-0.67,0.01,-0.21
7969,-5.41,1.07,8.14,-0.58,0.07,-0.12
7970,-5.36,1.11,8.23,-0.64,0.13,-0.18
7971,-5.4,1.03,8.21,-0.74,-0.06,-0.21
7972,-5.38,1.07,8.28,-0.55,0.01,0.01
7973,-5.33,1.0,8.26,-0.49,0.1,-0.12
7974,-5.38,1.08,8.18,-0.33,0.04,-0.18
7975,-5.44,1.1,8.16,-0.17,0.16,-0.18
7977,-5.47,1.1,8.13,-0.36,0.16,-0.12
7978,-5.35,1.1,8.07,-0.36,-0.15,0.01
7979,-5.42,1.06,8.15,-0.14,-0.21,0.23
7980,-5.38,1.04,8.17,-0.05,-0.12,0.13
7981,-5.42,1.09,8.18,0.05,-0.15,0.01
7982,-5.41,1.03,8.14,0.08,-0.09,0.1
7983,-5.42,0.99,8.14,0.01,-0.09,-0.02
7985,-5.4,1.03,8.23,0.2,-0.02,0.07
7986,-5.42,1.0,8.22,0.39,-0.18,0.16
7987,-5.41,1.07,8.16,0.7,-0.31,0.16
7988,-5.41,1.11,8.19,0.77,-0.06,0.07
7989,-5.44,1.13,8.25,0.89,-0.02,0.16
7990,-5.39,1.07,8.16,0.77,-0.31,0.23
7991,-5.36,1.05,8.18,0.77,-0.21,0.16
7992,-5.34,1.11,8.11,0.58,-0.21,0.1
7994,-5.35,1.1,8.22,0.33,-0.27,-0.02
7995,-5.41,1.09,8.19,0.26,-0.18,-0.06
7996,-5.36,1.09,8.02,0.2,-0.15,0.1
7997,-5.35,1.06,8.11,-0.08,-0.09,0.07
7998,-5.38,1.07,8.13,-0.27,-0.12,-0.06
7999,-5.44,1.18,8.04,-0.2,-0.02,0.01
8001,-5.37,1.16,8.03,-0.08,0.01,0.01
8002,-5.37,1.11,8.17,-0.17,-0.15,0.19
8003,-5.34,1.09,8.14,-0.17,-0.09,0.01
8004,-5.33,1.07,8.13,-0.3,-0.02,-0.12
8005,-5.35,1.07,8.21,-0.2,-0.06,-0.12
8006,-5.38,1.09,8.21,-0.02,-0.27,-0.12
8007,-5.36,1.08,8.2,-0.08,-0.34,0.01
8009,-5.4,1.13,8.08,-0.24,-0.12,0.04
8010,-5.4,1.05,8.11,-0.27,-0.15,-0.09
8011,-5.4,1.07,8.04,-0.24,-0.06,-0.15
8012,-5.36,1.08,8.14,-0.14,-0.12,-0.12
8013,-5.32,1.03,8.2,-0.17,-0.15,-0.09
8014,-5.4,1.07,8.26,-0.27,-0.02,-0.18
8015,-5.38,1.08,8.13,-0.33,-0.09,-0.18
8017,-5.38,1.14,8.16,-0.33,-0.15,-0.28
8018,-5.43,1.04,8.17,-0.33,-0.21,-0.21
8019,-5.4,1.11,8.11,-0.2,-0.12,-0.15
8020,-5.41,1.13,8.1,-0.11,-0.18,-0.15
8021,-5.39,1.13,8.14,-0.2,-0.18,-0.21
8022,-5.34,1.07,8.06,-0.14,-0.15,-0.24
8024,-5.35,1.07,8.07,-0.3,-0.15,-0.21
8025,-5.38,1.11,8.09,-0.14,-0.15,-0.18
8026,-5.37,1.16,8.15,-0.17,0.01,-0.34
8027,-5.36,1.08,8.11,-0.52,0.07,-0.34
8028,-5.39,1.1,8.17,-0.83,-0.12,-0.15
8029,-5.37,1.12,8.14,-0.74,-0.15,-0.02
8031,-5.37,1.15,8.22,-0.58,-0.12,-0.12
8032,-5.39,1.06,8.19,-0.71,-0.18,-0.31
8033,-5.36,1.06,8.11,-0.83,-0.15,-0.43
8034,-5.36,1.07,8.1,-0.67,-0.24,-0.43
8035,-5.38,1.07,8.13,-0.33,-0.24,-0.24
8036,-5.38,0.99,8.23,-0.17,-0.18,-0.28
8038,-5.35,0.96,8.28,0.08,-0.15,-0.34
8039,-5.39,1.06,8.23,0.2,-0.15,-0.31
8040,-5.43,1.14,8.12,0.01,-0.27,-0.28
8041,-5.4,1.12,8.14,-0.14,-0.27,-0.15
8042,-5.42,1.09,8.12,-0.33,0.04,-0.02
8043,-5.38,1.1,8.09,-0.42,-0.02,-0.18
8045,-5.36,1.09,8.13,-0.42,-0.24,-0.31
8046,-5.39,1.06,8.11,-0.42,-0.02,-0.28
8047,-5.34,1.02,8.17,-0.39,-0.02,-0.24
8048,-5.35,1.03,8.11,-0.46,0.04,-0.24
8049,-5.39,1.02,8.12,-0.58,-0.06,-0.18
8050,-5.38,1.01,8.16,-0.58,-0.12,-0.12
8052,-5.41,1.02,8.1,-0.58,-0.18,-0.28
8053,-5.43,1.06,8.15,-0.39,-0.24,-0.28
8054,-5.4,1.02,8.1,-0.36,-0.09,-0.21
8055,-5.4,1.09,8.16,-0.39,-0.12,-0.15
8056,-5.39,1.04,8.18,-0.46,-0.02,-0.15
8057,-5.41,1.04,8.27,-0.3,-0.18,-0.21
8059,-5.36,1.06,8.27,-0.27,-0.18,-0.18
8060,-5.43,1.09,8.18,-0.24,-0.24,-0.12
8061,-5.33,1.06,8.11,-0.14,-0.21,-0.09
8062,-5.42,1.1,8.18,-0.08,-0.06,-0.12
8063,-5.38,1.02,8.17,-0.08,-0.09,-0.18
8064,-5.38,1.03,8.17,0.08,-0.24,-0.15
8065,-5.37,1.11,8.16,0.08,-0.24,-0.18
8067,-5.34,1.12,8.16,0.01,-0.24,-0.15
8068,-5.32,1.16,8.11,0.08,-0.24,-0.15
8069,-5.38,1.14,8.12,-0.14,-0.21,-0.28
8070,-5.41,1.14,8.14,-0.42,-0.02,-0.24
8071,-5.36,1.11,8.11,-0.58,-0.09,-0.09
8072,-5.35,1.14,8.08,-0.58,-0.06,-0.18
8074,-5.32,1.12,8.11,-0.61,-0.12,-0.4
8075,-5.36,1.14,8.17,-0.58,-0.15,-0.28
8076,-5.38,1.06,8.08,-0.24,-0.21,-0.12
8077,-5.39,1.08,8.18,-0.27,0.1,-0.12
8078,-5.39,1.06,8.18,-0.27,0.04,-0.21
8079,-5.37,1.08,8.16,-0.27,-0.18,-0.34
8081,-5.4,1.05,8.17,-0.2,-0.34,-0.21
8082,-5.41,0.97,8.17,0.14,-0.18,-0.21
8083,-5.36,1.04,8.17,-0.24,-0.31,-0.24
8084,-5.39,1.06,8.16,-0.52,-0.18,-0.21
8085,-5.36,1.07,8.23,-0.61,-0.09,-0.31
8086,-5.32,1.01,8.28,-0.58,-0.27,-0.34
8087,-5.34,0.99,8.17,-0.46,-0.21,-0.24
8089,-5.39,1.09,8.11,-0.39,-0.21,-0.15
8090,-5.39,0.97,8.23,-0.24,-0.12,-0.24
8091,-5.36,1.02,8.17,-0.17,-0.06,-0.46
8092,-5.37,1.07,8.16,-0.17,-0.37,-0.21
8093,-5.37,1.08,8.2,-0.14,-0.18,-0.18
8094,-5.36,1.1,8.16,-0.42,-0.4,-0.18
8096,-5.34,1.08,8.27,-0.27,-0.46,-0.18
8097,-5.36,1.17,8.14,-0.2,-0.4,-0.28
8098,-5.3,1.05,8.16,-0.08,-0.15,-0.06
8099,-5.29,1.06,8.14,-0.08,0.07,-0.12
8100,-5.35,1.02,8.16,-0.02,-0.27,-0.15
8101,-5.33,1.04,8.23,-0.11,-0.12,-0.15
8103,-5.37,1.05,8.19,-0.14,-0.27,-0.15
8104,-5.38,1.07,8.19,-0.05,-0.15,-0.31
8105,-5.36,1.05,8.17,-0.24,-0.18,-0.24
8106,-5.42,1.07,8.22,-0.2,-0.34,-0.12
8107,-5.34,1.05,8.22,0.01,-0.12,-0.28
8108,-5.33,1.02,8.18,-0.17,-0.09,-0.12
8110,-5.34,1.08,8.21,-0.05,-0.27,-0.15
8111,-5.33,1.1,8.19,0.11,-0.27,-0.31
8112,-5.34,1.06,8.18,0.05,-0.24,-0.28
8113,-5.33,1.05,8.24,-0.08,0.1,-0.18
8114,-5.3,1.09,8.18,-0.17,-0.12,-0.02
8115,-5.37,1.13,8.19,-0.11,-0.24,-0.09
8117,-5.32,1.11,8.12,-0.24,-0.09,-0.21
8118,-5.36,1.14,8.09,-0.05,-0.02,-0.21
8119,-5.34,1.09,8.1,-0.3,-0.09,-0.09
8120,-5.36,1.13,8.2,-0.46,0.01,-0.12
8121,-5.37,1.08,8.16,-0.67,-0.21,-0.24
8122,-5.43,1.06,8.11,-0.39,-0.24,-0.12
8124,-5.31,1.09,8.22,-0.55,-0.15,-0.12
8125,-5.35,1.01,8.2,-0.52,0.1,-0.15
8126,-5.35,0.98,8.2,-0.52,-0.02,-0.09
8127,-5.39,1.03,8.21,-0.27,-0.18,-0.15
8128,-5.36,1.07,8.16,-0.2,-0.18,-0.31
8129,-5.39,1.01,8.18,-0.08,-0.24,-0.09
8130,-5.37,1.01,8.19,-0.02,-0.18,-0.12
8132,-5.34,1.07,8.19,0.23,-0.18,-0.12
8133,-5.3,1.02,8.21,0.26,-0.27,-0.12
8134,-5.37,1.1,8.08,-0.3,-0.4,-0.21
8135,-5.37,1.11,8.06,-0.24,-0.12,-0.24
8136,-5.37,1.09,8.13,-0.42,-0.12,-0.21
8137,-5.31,1.08,8.14,-0.3,-0.12,-0.15
8139,-5.32,1.07,8.1,-0.42,0.13,-0.09
8140,-5.33,1.05,8.13,-0.64,-0.06,-0.24
8141,-5.39,1.04,8.22,-0.2,-0.09,-0.24
8142,-5.4,1.06,8.17,-0.24,-0.37,-0.21
8143,-5.38,1.06,8.1,-0.14,-0.27,-0.28
8144,-5.32,1.07,8.18,-0.3,-0.15,-0.09
8145,-5.37,1.06,8.24,-0.17,-0.12,-0.21
8147,-5.42,1.08,8.2,-0.17,-0.18,-0.34
8148,-5.37,1.08,8.16,-0.27,-0.4,-0.24
8149,-5.39,1.07,8.15,-0.3,-0.02,-0.15
8150,-5.35,1.05,8.16,-0.71,-0.24,-0.09
8151,-5.34,1.04,8.18,-0.58,-0.24,-0.21
8152,-5.36,1.08,8.15,-0.42,-0.21,-0.34
8154,-5.37,1.07,8.21,-0.2,-0.18,-0.06
8155,-5.29,1.02,8.17,-0.14,0.01,-0.12
8156,-5.38,1.08,8.1,-0.14,-0.37,-0.34
8157,-5.4,1.04,8.09,-0.17,-0.24,-0.31
8158,-5.39,1.03,8.06,-0.39,-0.18,-0.12
8159,-5.4,1.05,8.09,-0.42,0.07,-0.06
8161,-5.4,1.08,8.13,-0.55,0.13,-0.09
8162,-5.37,1.08,8.18,-0.36,-0.15,-0.18
8163,-5.35,1.02,8.18,-0.39,-0.21,-0.24
8164,-5.36,1.08,8.22,-0.46,-0.31,-0.12
8165,-5.31,1.04,8.19,-0.3,-0.02,-0.18
8166,-5.31,0.99,8.18,-0.24,-0.27,-0.21
8168,-5.32,1.04,8.13,-0.08,-0.4,-0.24
8169,-5.34,1.0,8.17,-0.14,-0.06,-0.09
8170,-5.44,1.08,8.26,-0.2,-0.18,0.01
8171,-5.33,1.04,8.18,-0.3,-0.12,0.04
8172,-5.33,1.02,8.2,-0.3,-0.37,-0.09
8173,-5.41,1.07,8.24,0.05,-0.34,-0.12
8174,-5.38,1.1,8.13,-0.11,-0.4,-0.09
8176,-5.38,1.08,8.12,0.08,-0.34,-0.09
8177,-5.32,1.06,8.17,-0.14,-0.34,-0.06
8178,-5.35,1.09,8.12,-0.2,-0.12,-0.12
8179,-5.37,1.06,8.11,-0.39,-0.18,-0.18
8180,-5.35,1.1,8.15,-0.27,-0.24,-0.12
8181,-5.34,1.08,8.1,-0.14,-0.09,-0.12
8183,-5.29,1.04,8.15,-0.17,-0.4,-0.12
8184,-5.35,1.06,8.12,-0.17,-0.06,-0.15
8185,-5.36,1.07,8.16,-0.14,-0.18,0.01
8186,-5.35,1.09,8.13,-0.11,-0.12,-0.06
8187,-5.38,1.07,8.17,-0.17,-0.37,-0.15
8188,-5.38,1.08,8.21,-0.02,-0.31,-0.18
8190,-5.31,1.0,8.11,0.08,-0.34,-0.21
8191,-5.3,1.0,8.09,0.08,-0.09,-0.21
8192,-5.41,1.07,8.19,-0.17,-0.18,-0.15
8193,-5.4,1.04,8.15,-0.36,-0.34,-0.06
8194,-5.38,1.1,8.19,-0.42,-0.24,-0.06
8195,-5.41,1.04,8.2,-0.36,-0.18,-0.12
8196,-5.43,1.02,8.25,-0.2,-0.21,-0.21
8198,-5.37,1.01,8.1,-0.17,-0.18,-0.28
8199,-5.34,1.11,8.12,-0.27,-0.06,-0.24
8200,-5.4,1.06,8.14,-0.3,-0.02,-0.18
8201,-5.33,1.04,8.17,-0.24,-0.37,-0.18
8202,-5.32,1.09,8.17,-0.27,-0.43,-0.28
8203,-5.37,1.07,8.16,-0.39,-0.34,-0.12
8205,-5.42,1.01,8.11,-0.2,-0.15,-0.15
8206,-5.35,1.11,8.03,-0.14,-0.15,-0.24
8207,-5.32,1.04,8.11,-0.02,-0.15,-0.15
8208,-5.38,1.07,8.05,0.01,-0.21,-0.12
8209,-5.33,1.1,8.07,-0.02,-0.31,-0.12
8210,-5.35,1.06,8.14,0.08,-0.15,-0.24
8212,-5.31,1.01,8.17,-0.08,-0.09,-0.24
8213,-5.3,1.04,8.1,-0.17,-0.31,-0.02
8214,-5.32,1.08,8.13,-0.33,-0.31,-0.15
8215,-5.36,1.1,8.1,-0.71,-0.18,-0.28
8216,-5.35,1.08,8.1,-0.74,-0.12,-0.24
8217,-5.34,1.0,8.11,-0.61,-0.15,-0.37
8219,-5.3,1.05,8.14,-0.49,-0.06,-0.21
8220,-5.36,1.1,8.16,-0.36,-0.12,-0.21
8221,-5.32,1.05,8.23,-0.46,-0.15,-0.34
8222,-5.32,1.05,8.19,-0.27,-0.34,-0.4
8223,-5.27,1.01,8.17,-0.08,-0.24,-0.28
8224,-5.33,1.01,8.2,-0.17,-0.31,-0.24
8226,-5.4,1.02,8.23,-0.02,-0.09,-0.31
8227,-5.39,1.05,8.17,-0.11,-0.09,-0.21
8228,-5.44,1.06,8.17,-0.39,-0.12,-0.02
8229,-5.4,1.1,8.19,-0.39,0.01,-0.09
8230,-5.38,1.09,8.21,-0.39,-0.31,-0.21
8231,-5.38,1.05,8.2,-0.3,-0.27,-0.34
8233,-5.37,0.99,8.15,-0.2,-0.18,-0.34
8234,-5.34,1.05,8.21,-0.24,0.01,-0.31
8235,-5.41,0.99,8.22,-0.49,-0.15,-0.28
8236,-5.42,1.07,8.12,-0.36,-0.37,-0.24
8237,-5.34,1.04,8.09,-0.3,-0.31,-0.15
8238,-5.35,1.05,8.2,-0.14,-0.09,-0.12
8240,-5.36,1.09,8.23,-0.08,-0.06,-0.09
8241,-5.34,1.02,8.28,-0.17,-0.18,-0.21
8242,-5.36,1.01,8.16,-0.11,-0.27,-0.31
8243,-5.35,1.03,8.14,0.01,-0.27,-0.21
8244,-5.36,1.1,8.11,-0.11,-0.27,-0.15
8245,-5.32,1.09,8.14,-0.24,-0.27,-0.28
8246,-5.38,1.12,8.13,-0.39,-0.18,-0.21
8248,-5.35,1.12,8.15,-0.42,-0.27,-0.09
8249,-5.38,1.1,8.05,-0.42,-0.4,-0.21
8250,-5.34,1.07,8.24,-0.33,-0.21,-0.15
8251,-5.36,1.06,8.21,-0.2,-0.09,0.04
8252,-5.4,1.01,8.22,-0.02,-0.31,0.01
8253,-5.37,1.04,8.17,-0.08,-0.21,-0.15
8255,-5.37,1.0,8.1,-0.11,-0.02,-0.18
8256,-5.41,0.99,8.12,-0.11,-0.27,-0.15
8257,-5.35,1.03,8.18,-0.05,-0.27,-0.31
8258,-5.3,1.06,8.14,-0.08,-0.18,-0.43
8259,-5.33,1.1,8.21,-0.42,-0.15,-0.21
8260,-5.34,1.07,8.11,-0.27,-0.06,-0.09
8262,-5.36,1.1,8.11,-0.17,0.01,-0.18
8263,-5.38,1.07,8.14,-0.42,-0.06,-0.18
8264,-5.37,1.06,8.19,-0.58,-0.18,-0.24
8265,-5.32,1.03,8.22,-0.39,-0.02,-0.09
8266,-5.33,1.04,8.15,-0.3,-0.18,-0.18
8267,-5.4,1.02,8.25,-0.14,-0.27,-0.37
8269,-5.39,1.05,8.23,-0.05,-0.02,-0.34
8270,-5.35,1.08,8.16,-0.2,-0.21,-0.15
8271,-5.42,1.1,8.23,-0.2,-0.37,0.07
8272,-5.43,1.1,8.27,-0.02,-0.18,0.01
8273,-5.35,1.07,8.22,0.05,0.07,-0.12
8274,-5.31,1.06,8.21,-0.08,-0.15,-0.24
8275,-5.33,1.04,8.09,-0.39,-0.21,-0.21
8277,-5.35,1.11,8.05,-0.52,-0.12,-0.28
8278,-5.34,1.07,8.02,-0.71,0.04,-0.28
8279,-5.3,1.04,8.16,-0.61,-0.09,-0.24
8280,-5.38,1.01,8.13,-0.52,-0.27,-0.21
8281,-5.4,1.03,8.17,-0.3,-0.34,-0.28
8282,-5.38,1.12,8.26,-0.3,-0.21,-0.21
8284,-5.39,1.09,8.21,-0.42,-0.15,-0.15
8285,-5.38,1.06,8.12,-0.2,-0.15,-0.18
8286,-5.36,1.07,8.09,-0.2,-0.18,-0.18
8287,-5.36,1.06,8.13,-0.24,-0.4,-0.09
8288,-5.37,1.04,8.19,-0.3,-0.37,-0.06
8289,-5.35,1.07,8.13,-0.24,-0.21,-0.06
8291,-5.35,1.07,8.15,-0.14,-0.09,-0.15
8292,-5.42,1.12,8.17,-0.39,-0.21,-0.12
8293,-5.35,1.07,8.19,-0.46,-0.31,-0.21
8294,-5.31,1.06,8.21,-0.3,-0.15,-0.18
8295,-5.34,1.04,8.17,-0.33,-0.06,-0.28
8296,-5.35,1.02,8.21,-0.36,0.01,-0.21
8298,-5.39,0.99,8.14,-0.27,-0.21,-0.28
8299,-5.39,0.98,8.13,-0.11,-0.34,-0.24
8300,-5.39,1.06,8.11,-0.17,-0.24,-0.18
8301,-5.38,0.99,8.14,-0.08,-0.15,-0.24
8302,-5.37,1.02,8.2,-0.02,-0.34,-0.21
8303,-5.36,1.05,8.2,0.01,-0.46,-0.21
8305,-5.31,1.04,8.07,-0.2,-0.18,-0.24
8306,-5.36,1.03,8.14,-0.17,-0.12,-0.18
8307,-5.38,1.05,8.11,-0.2,-0.4,-0.02
8308,-5.42,1.07,8.22,-0.27,-0.4,-0.09
8309,-5.39,1.01,8.18,-0.3,-0.21,-0.34
8310,-5.38,0.97,8.13,-0.42,-0.06,-0.31
8312,-5.32,1.09,8.11,-0.42,-0.12,-0.06
8313,-5.35,1.08,8.14,-0.36,-0.21,-0.06
8314,-5.38,1.07,8.14,-0.33,-0.21,-0.28
8315,-5.38,1.07,8.17,-0.39,-0.31,-0.12
8316,-5.37,1.05,8.15,-0.46,-0.21,-0.15
8317,-5.38,1.05,8.19,-0.49,-0.15,-0.24
8319,-5.4,1.04,8.22,-0.27,-0.24,-0.28
8320,-5.41,1.04,8.22,-0.17,-0.43,-0.15
8321,-5.41,1.02,8.14,-0.05,-0.24,-0.12
8322,-5.35,1.03,8.12,0.05,-0.21,-0.21
8323,-5.34,1.03,8.09,0.08,-0.18,-0.12
8324,-5.36,1.1,8.19,-0.05,-0.37,-0.15
8325,-5.31,1.12,8.21,-0.02,-0.49,-0.31
8327,-5.34,1.14,8.14,0.01,-0.46,-0.31
8328,-5.41,1.07,8.17,-0.11,-0.18,-0.34
8329,-5.3,1.08,8.14,-0.55,-0.18,-0.28
8330,-5.28,1.1,8.17,-0.64,-0.34,-0.4
8331,-5.26,1.14,8.18,-0.67,-0.31,-0.46
8332,-5.36,1.04,8.14,-0.67,-0.24,-0.43
8334,-5.32,1.05,8.18,-0.77,-0.21,-0.43
8335,-5.26,1.06,8.2,-0.74,-0.12,-0.46
8336,-5.41,1.04,8.19,-0.52,-0.06,-0.28
8337,-5.4,1.03,8.24,-0.3,-0.15,-0.18
8338,-5.4,0.96,8.23,-0.17,-0.31,-0.12
8339,-5.36,0.99,8.29,-0.11,-0.31,-0.4
8341,-5.37,1.03,8.27,-0.24,-0.34,-0.31
8342,-5.41,1.06,8.19,-0.08,-0.31,-0.15
8343,-5.38,1.06,8.15,-0.17,-0.31,-0.37
8344,-5.31,1.12,8.18,-0.17,-0.37,-0.34
8345,-5.32,1.07,8.15,-0.3,-0.4,-0.37
8346,-5.37,1.03,8.1,-0.05,-0.31,-0.34
8348,-5.38,1.04,8.12,-0.05,-0.24,-0.28
8349,-5.34,1.05,8.16,-0.11,-0.37,-0.12
8350,-5.34,1.12,8.11,-0.42,-0.34,-0.24
8351,-5.35,1.11,8.14,-0.77,-0.31,-0.4
8352,-5.35,1.03,8.14,-0.64,-0.15,-0.46
8353,-5.38,1.07,8.17,-0.71,-0.09,-0.4
8355,-5.33,1.1,8.26,-0.46,-0.12,-0.49
8356,-5.32,1.09,8.21,-0.52,-0.18,-0.4
8357,-5.33,1.02,8.12,-0.42,-0.24,-0.24
8358,-5.28,1.05,8.11,-0.36,-0.06,-0.28
8359,-5.35,1.05,8.11,-0.17,-0.12,-0.28
8360,-5.38,1.02,8.12,-0.08,-0.18,-0.24
8361,-5.4,1.08,8.19,-0.14,-0.21,-0.34
8363,-5.4,1.08,8.22,-0.33,-0.27,-0.31
8364,-5.42,0.97,8.29,-0.52,-0.31,-0.31
8365,-5.3,1.01,8.3,-0.39,-0.4,-0.4
8366,-5.3,1.07,8.22,-0.3,-0.24,-0.53
8367,-5.34,1.1,8.25,-0.42,-0.09,-0.4
8368,-5.35,1.09,8.15,-0.52,-0.09,-0.37
8370,-5.36,1.08,8.19,-0.55,-0.21,-0.4
8371,-5.41,1.12,8.23,-0.52,-0.27,-0.37
8372,-5.31,1.1,8.22,-0.67,-0.15,-0.4
8373,-5.35,1.06,8.19,-0.58,0.04,-0.4
8374,-5.34,1.0,8.11,-0.55,0.04,-0.49
8375,-5.36,1.04,8.21,-0.77,-0.12,-0.49
8377,-5.4,1.12,8.21,-0.74,-0.12,-0.4
8378,-5.39,1.13,8.17,-0.71,-0.27,-0.34
8379,-5.34,1.12,8.25,-0.49,-0.21,-0.4
8380,-5.35,1.04,8.23,-0.49,-0.12,-0.56
8381,-5.35,1.06,8.11,-0.52,-0.02,-0.59
8382,-5.36,1.12,8.14,-0.52,-0.02,-0.56
8384,-5.32,1.1,8.11,-0.52,-0.06,-0.59
8385,-5.31,1.09,8.07,-0.33,-0.21,-0.53
8386,-5.38,1.16,8.05,-0.42,-0.12,-0.46
8387,-5.34,1.12,8.09,-0.67,0.07,-0.31
8388,-5.4,1.07,8.13,-0.8,0.19,-0.34
8389,-5.34,1.09,8.13,-0.8,0.1,-0.34
8390,-5.32,1.04,8.16,-0.52,-0.09,-0.28
8392,-5.32,1.02,8.17,-0.46,0.01,-0.46
8393,-5.38,1.01,8.2,-0.39,0.07,-0.62
8394,-5.36,1.0,8.14,-0.24,-0.02,-0.43
8395,-5.34,1.01,8.15,-0.36,-0.21,-0.53
8396,-5.35,0.99,8.25,-0.42,-0.15,-0.59
8397,-5.37,1.04,8.25,-0.42,-0.06,-0.59
8399,-5.43,1.07,8.15,-0.52,-0.09,-0.53
8400,-5.4,1.03,8.12,-0.71,-0.12,-0.43
8401,-5.34,1.09,8.11,-0.96,-0.12,-0.31
8402,-5.36,1.09,8.11,-1.05,-0.12,-0.4
8403,-5.4,1.08,8.08,-1.24,0.01,-0.37
8404,-5.4,1.05,8.17,-1.24,0.16,-0.37
8406,-5.37,1.01,8.16,-1.05,0.16,-0.43
8407,-5.34,1.0,8.14,-0.61,-0.15,-0.59
8408,-5.36,1.0,8.21,-0.42,-0.06,-0.46
8409,-5.38,1.02,8.24,-0.24,-0.06,-0.18
8410,-5.38,0.97,8.28,-0.27,-0.18,-0.28
8411,-5.39,0.99,8.24,-0.08,-0.27,-0.4
8413,-5.33,0.96,8.25,-0.05,-0.4,-0.31
8414,-5.32,0.96,8.27,-0.2,-0.24,-0.18
8415,-5.3,1.07,8.18,-0.17,-0.15,-0.4
8416,-5.34,1.05,8.18,-0.2,-0.15,-0.49
8417,-5.31,1.06,8.12,-0.42,-0.09,-0.43
8418,-5.34,1.01,8.15,-0.64,0.04,-0.37
8420,-5.33,1.07,8.19,-0.58,0.07,-0.4
8421,-5.34,1.08,8.23,-0.74,0.16,-0.53
8422,-5.36,1.06,8.18,-0.86,-0.02,-0.65
8423,-5.41,1.13,8.22,-0.89,0.01,-0.65
8424,-5.32,1.12,8.11,-1.02,0.1,-0.49
8425,-5.31,1.08,8.12,-0.99,0.04,-0.43
8426,-5.26,1.13,8.19,-1.05,0.01,-0.59
8428,-5.28,1.1,8.19,-0.96,-0.12,-0.68
8429,-5.32,1.06,8.1,-0.92,-0.09,-0.71
8430,-5.34,1.08,8.25,-0.8,-0.12,-0.53
8431,-5.34,1.02,8.3,-0.49,0.07,-0.31
8432,-5.36,1.02,8.23,-0.49,0.1,-0.21
8433,-5.33,0.98,8.23,-0.58,-0.02,-0.43
8435,-5.34,0.99,8.23,-0.61,-0.02,-0.46
8436,-5.37,1.01,8.22,-0.67,0.04,-0.49
8437,-5.37,0.97,8.25,-0.42,-0.02,-0.49
8438,-5.37,1.02,8.23,-0.55,-0.02,-0.28
8439,-5.39,1.02,8.19,-0.74,0.07,-0.37
8440,-5.4,1.08,8.21,-0.77,0.19,-0.59
8441,-5.41,1.04,8.29,-1.08,0.04,-0.62
8443,-5.41,1.04,8.25,-1.02,-0.24,-0.59
8444,-5.4,1.08,8.21,-1.05,-0.31,-0.68
8445,-5.4,1.06,8.23,-1.11,-0.12,-0.62
8446,-5.32,1.09,8.18,-1.02,0.04,-0.4
8447,-5.41,1.09,8.27,-1.08,-0.02,-0.59
8448,-5.42,1.05,8.26,-1.18,-0.02,-0.74
8450,-5.39,1.07,8.2,-1.39,-0.15,-0.65
8451,-5.33,1.05,8.25,-1.3,-0.15,-0.71
8452,-5.36,1.02,8.23,-0.99,-0.06,-0.71
8453,-5.38,0.99,8.21,-0.86,0.04,-0.74
8454,-5.38,1.04,8.2,-0.86,-0.09,-0.68
8455,-5.41,1.05,8.24,-0.83,-0.06,-0.53
8457,-5.41,1.06,8.15,-1.05,-0.15,-0.74
8458,-5.43,1.08,8.17,-1.43,-0.31,-0.81
8459,-5.38,1.06,8.19,-1.49,-0.4,-0.71
8460,-5.35,1.06,8.15,-1.58,-0.15,-0.71
8461,-5.34,1.0,8.21,-1.52,0.07,-0.84
8462,-5.35,1.0,8.2,-1.33,-0.12,-0.9
8463,-5.35,1.06,8.21,-1.27,-0.24,-0.74
8465,-5.41,1.04,8.2,-1.39,-0.18,-0.84
8466,-5.41,1.01,8.25,-1.58,-0.15,-0.81
8467,-5.44,1.05,8.22,-1.52,-0.27,-0.78
8468,-5.46,1.01,8.2,-1.52,-0.37,-0.93
8469,-5.41,1.01,8.19,-1.36,-0.34,-0.84
8470,-5.39,1.04,8.18,-1.27,-0.59,-0.74
8472,-5.45,1.09,8.18,-1.36,-0.37,-0.84
8473,-5.46,1.04,8.19,-1.64,-0.4,-0.81
8474,-5.34,1.14,8.22,-2.05,-0.65,-0.84
8475,-5.4,1.09,8.22,-2.24,-0.71,-0.96
8476,-5.41,1.07,8.21,-2.36,-0.84,-0.87
8477,-5.41,1.03,8.29,-2.15,-0.74,-1.03
8478,-5.36,1.05,8.28,-1.96,-0.84,-1.0
8480,-5.3,1.02,8.25,-1.64,-0.74,-1.0
8481,-5.27,0.98,8.11,-1.33,-0.68,-1.0
8482,-5.26,1.1,8.08,-0.96,-0.59,-1.0
8483,-5.38,1.1,8.05,-0.96,-0.4,-0.87
8484,-5.33,1.11,8.12,-1.33,-0.12,-1.03
8485,-5.3,1.12,8.16,-1.8,-0.02,-1.12
8487,-5.35,1.15,8.17,-2.27,0.16,-0.9
8488,-5.41,1.16,8.15,-2.71,0.16,-0.9
8489,-5.42,1.12,8.21,-3.4,0.1,-1.06
8490,-5.45,1.07,8.24,-3.77,0.13,-1.09
8491,-5.4,0.99,8.28,-4.18,-0.09,-1.12
8492,-5.42,1.03,8.21,-4.05,-0.09,-0.96
8493,-5.41,0.95,8.24,-3.3,0.07,-1.18
8495,-5.46,0.89,8.35,-2.96,0.1,-1.25
8496,-5.56,0.96,8.35,-2.74,-0.15,-1.15
8497,-5.59,0.92,8.35,-2.02,-0.43,-1.03
8498,-5.55,0.91,8.43,-1.55,-0.74,-1.03
8499,-5.5,0.94,8.41,-1.43,-0.96,-0.96
8500,-5.54,1.01,8.36,-1.39,-1.24,-1.0
8502,-5.57,1.03,8.35,-1.02,-1.62,-1.06
8503,-5.54,0.99,8.31,-0.89,-1.93,-0.96
8504,-5.5,0.98,8.36,-1.02,-2.03,-1.09
8505,-5.42,1.1,8.44,-1.3,-1.87,-1.34
8506,-5.44,1.09,8.39,-1.86,-1.93,-1.34
8507,-5.44,1.03,8.36,-2.61,-1.93,-1.28
8509,-5.46,0.96,8.35,-3.27,-2.15,-1.43
8510,-5.47,0.96,8.25,-3.65,-2.37,-1.53
8511,-5.48,0.96,8.32,-3.68,-2.37,-1.59
8512,-5.48,0.97,8.38,-3.33,-2.68,-1.5
8513,-5.5,0.95,8.46,-3.18,-2.9,-1.62
8514,-5.42,0.95,8.46,-3.12,-3.06,-1.81
8516,-5.38,1.03,8.46,-3.15,-3.47,-1.87
8517,-5.29,0.97,8.15,-3.02,-3.53,-1.93
8518,-5.16,0.92,8.09,-2.4,-3.34,-1.87
8519,-5.11,0.95,8.0,-1.71,-3.15,-1.75
8520,-5.15,0.97,7.89,-1.21,-3.44,-1.59
8521,-5.24,1.0,7.86,-1.05,-3.37,-1.59
8523,-5.34,1.02,7.97,-1.58,-3.25,-1.59
8524,-5.44,1.19,8.28,-2.49,-3.15,-1.75
8525,-5.56,1.24,8.45,-3.43,-3.12,-2.03
8526,-5.66,1.31,8.44,-4.71,-2.9,-2.22
8527,-5.66,1.31,8.44,-5.56,-2.93,-2.37
8528,-5.72,1.24,8.48,-5.93,-2.9,-2.56
8530,-5.66,1.15,8.54,-5.68,-3.12,-2.72
8531,-5.61,1.03,8.59,-5.18,-3.56,-2.72
8532,-5.6,0.97,8.49,-4.43,-3.81,-2.65
8533,-5.52,1.02,8.44,-3.68,-4.09,-2.56
8534,-5.46,1.01,8.39,-3.18,-4.44,-2.53
8535,-5.42,1.02,8.31,-2.93,-4.72,-2.81
8537,-5.34,0.99,8.21,-3.08,-4.69,-2.87
8538,-5.19,1.01,8.07,-3.65,-4.25,-2.84
8539,-5.05,1.16,7.95,-3.71,-4.0,-2.9
8540,-5.06,1.2,7.9,-4.05,-3.72,-3.0
8541,-5.1,1.23,7.96,-4.56,-3.37,-3.09
8542,-5.14,1.26,8.0,-5.21,-2.93,-3.22
8544,-5.15,1.23,8.14,-5.93,-2.62,-3.34
8545,-5.22,1.2,8.17,-6.4,-2.53,-3.47
8546,-5.26,1.14,8.25,-6.5,-2.68,-3.47
8547,-5.23,1.04,8.35,-6.09,-2.65,-3.62
8548,-5.21,1.05,8.39,-5.78,-2.68,-3.87
8549,-5.32,1.05,8.46,-5.87,-2.5,-3.87
8551,-5.39,1.05,8.33,-5.93,-2.62,-3.97
8552,-5.46,1.07,8.31,-5.43,-2.87,-4.22
8553,-5.41,1.11,8.49,-5.18,-3.0,-4.06
8554,-5.31,1.07,8.49,-5.4,-3.06,-4.16
8555,-5.42,1.16,8.35,-5.9,-3.03,-4.47
8556,-5.43,1.17,8.27,-6.75,-3.0,-4.53
8558,-5.47,1.08,8.25,-7.03,-2.87,-4.44
8559,-5.44,1.1,8.28,-6.93,-2.72,-4.5
8560,-5.43,1.09,8.23,-7.18,-2.78,-4.75
8561,-5.48,1.04,8.25,-7.53,-2.59,-4.72
8562,-5.49,1.03,8.21,-7.87,-2.68,-4.78
8563,-5.55,1.04,8.24,-7.9,-3.03,-4.88
8565,-5.44,0.95,8.28,-7.78,-3.25,-4.97
8566,-5.4,0.9,8.25,-7.59,-3.15,-5.03
8567,-5.47,1.04,8.42,-7.4,-3.12,-5.0
8568,-5.59,0.98,8.55,-7.4,-3.34,-4.88
8569,-5.48,0.81,8.48,-7.87,-3.47,-5.25
8570,-5.44,0.81,8.44,-7.97,-3.62,-5.63
8572,-5.42,0.8,8.39,-7.72,-3.47,-6.03
8573,-5.4,0.72,8.37,-7.47,-3.37,-5.97
8574,-5.34,0.69,8.52,-7.43,-3.4,-6.19
8575,-5.43,0.58,8.44,-7.31,-3.47,-6.44
8576,-5.41,0.59,8.44,-6.97,-3.69,-6.94
8577,-5.41,0.5,8.49,-6.53,-3.78,-7.51
8579,-5.48,0.53,8.47,-6.37,-3.97,-7.76
8580,-5.5,0.5,8.4,-5.59,-4.12,-7.97
8581,-5.51,0.37,8.48,-4.49,-4.47,-8.35
8582,-5.47,0.36,8.46,-3.87,-4.78,-8.66
8583,-5.44,0.33,8.47,-2.68,-5.16,-9.13
8584,-5.33,0.25,8.47,-1.55,-5.13,-9.48
8586,-5.32,0.27,8.45,-0.86,-5.19,-9.7
8587,-5.39,0.29,8.4,-0.36,-5.16,-10.01
8588,-5.46,0.35,8.33,0.58,-5.38,-10.76
8589,-5.34,0.34,8.44,0.92,-5.72,-11.32
8590,-5.34,0.31,8.46,1.23,-5.88,-11.76
8591,-5.32,0.27,8.44,1.61,-5.75,-12.17
8593,-5.33,0.26,8.46,2.11,-5.66,-12.61
8594,-5.28,0.25,8.45,2.55,-5.85,-13.08
8595,-5.25,0.18,8.47,3.61,-6.44,-13.76
8596,-5.19,0.23,8.39,4.8,-6.72,-14.14
8597,-5.16,0.22,8.38,5.99,-6.63,-14.55
8598,-5.17,0.3,8.41,7.06,-6.5,-14.95
8599,-5.14,0.33,8.41,7.43,-6.57,-15.27
8605,-4.94,0.53,8.28,10.53,-6.22,-18.27
8606,-4.86,0.63,8.34,10.87,-6.25,-18.71
8607,-4.77,0.68,8.36,11.03,-6.13,-19.18
8609,-4.63,0.64,8.28,11.41,-5.72,-19.71
8610,-4.67,0.78,8.15,11.66,-5.44,-19.99
8611,-4.65,0.79,8.29,11.88,-5.41,-20.37
8612,-4.63,0.83,8.38,12.38,-5.16,-20.65
8613,-4.55,0.85,8.35,13.07,-5.0,-21.03
8614,-4.44,0.91,8.43,13.53,-4.78,-21.46
8615,-4.37,0.96,8.35,13.66,-4.03,-21.65
8617,-4.37,1.0,8.32,14.19,-3.25,-22.06
8618,-4.43,1.19,8.45,14.41,-2.84,-22.43
8619,-4.36,1.23,8.6,14.44,-2.68,-22.56
8620,-4.26,1.29,8.47,14.51,-2.0,-22.97
8621,-4.31,1.38,8.51,14.51,-0.96,-23.28
8622,-4.26,1.45,8.57,14.41,-0.52,-23.31
8624,-4.21,1.46,8.57,14.16,-0.43,-23.5
8625,-4.2,1.55,8.58,13.94,-0.09,-23.78
8626,-4.14,1.57,8.48,13.47,0.19,-23.91
8627,-4.14,1.62,8.46,13.32,0.51,-24.16
8628,-4.12,1.63,8.45,13.19,0.79,-24.44
8629,-4.09,1.7,8.4,12.6,1.04,-24.41
8630,-4.03,1.73,8.41,12.19,1.51,-24.66
8632,-3.91,1.8,8.32,11.69,1.88,-25.0
8633,-3.84,1.78,8.25,11.0,2.39,-24.94
8634,-3.8,1.83,8.24,10.34,3.14,-24.91
8635,-3.85,1.87,8.22,9.62,3.83,-25.03
8636,-3.97,1.85,8.25,8.56,4.26,-25.16
8637,-4.06,1.88,8.4,6.99,4.64,-25.06
8638,-4.09,1.88,8.48,6.37,4.89,-24.97
8639,-4.11,1.79,8.57,5.59,5.23,-25.09
8640,-4.07,1.74,8.68,4.93,5.39,-25.25
8641,-4.12,1.72,8.71,4.55,5.61,-25.34
8643,-4.14,1.7,8.77,4.21,5.67,-25.25
8644,-4.11,1.63,8.86,3.74,5.7,-24.97
8645,-4.17,1.54,8.94,3.61,5.7,-24.75
8646,-4.22,1.48,8.96,3.68,5.8,-24.75
8647,-4.26,1.47,8.91,3.68,5.7,-24.59
8648,-4.24,1.44,8.97,3.9,5.58,-24.31
8649,-4.21,1.33,9.17,4.24,5.3,-24.0
8650,-4.29,1.27,9.18,4.77,4.98,-23.84
8651,-4.25,1.24,9.18,5.37,4.61,-23.69
8652,-4.22,1.27,9.24,5.68,4.23,-23.47
8654,-4.12,1.23,9.17,5.96,4.11,-23.31
8655,-4.05,1.34,9.22,6.4,3.95,-23.19
8656,-4.07,1.31,9.13,6.84,3.64,-23.03
8657,-4.05,1.29,9.15,7.09,3.7,-22.87
8658,-4.0,1.35,9.07,6.87,3.73,-22.56
8659,-3.97,1.39,9.11,6.68,3.54,-22.59
8660,-3.91,1.34,9.07,6.59,3.45,-22.31
8661,-3.9,1.37,9.14,6.4,3.45,-22.34
8662,-3.89,1.39,9.14,6.24,3.54,-22.31
8664,-3.82,1.42,9.09,5.77,3.73,-22.31
8665,-3.76,1.43,9.16,5.12,3.86,-22.22
8666,-3.85,1.42,9.0,4.74,3.89,-22.09
8667,-3.72,1.39,9.08,4.43,4.04,-21.84
8668,-3.74,1.34,9.06,4.61,4.11,-21.4
8669,-3.77,1.32,9.15,5.3,3.98,-21.18
8670,-3.78,1.28,9.18,5.74,3.7,-21.21
8671,-3.83,1.25,9.26,6.15,3.58,-21.15
8673,-3.82,1.32,9.25,6.24,3.54,-21.06
8674,-3.82,1.33,9.19,6.65,3.42,-20.93
8675,-3.87,1.39,9.14,7.02,3.32,-21.06
8676,-3.77,1.43,9.17,6.93,3.17,-20.9
8677,-3.71,1.38,9.18,6.68,3.14,-20.87
8678,-3.65,1.35,9.19,6.59,3.48,-20.84
8679,-3.61,1.4,9.19,6.68,3.86,-20.78
8681,-3.67,1.47,9.08,6.9,3.83,-20.71
8682,-3.62,1.53,9.01,6.77,3.95,-20.59
8683,-3.62,1.54,9.15,6.59,4.01,-20.59
8684,-3.58,1.57,9.1,6.49,4.23,-20.52
8685,-3.51,1.63,9.11,6.46,4.36,-20.46
8686,-3.49,1.55,9.24,6.56,4.17,-20.4
8687,-3.49,1.55,9.29,6.4,4.14,-20.34
8688,-3.5,1.6,9.18,6.43,4.26,-20.27
8690,-3.48,1.59,9.22,6.09,4.36,-20.12
8691,-3.4,1.54,9.11,5.9,4.45,-19.84
8692,-3.41,1.5,9.22,6.05,4.48,-19.71
8693,-3.42,1.55,9.24,6.18,4.45,-19.55
8694,-3.46,1.56,9.23,6.34,4.42,-19.3
8695,-3.42,1.59,9.3,6.37,4.42,-19.34
8696,-3.41,1.52,9.29,6.27,4.48,-19.37
8698,-3.43,1.56,9.34,6.18,4.42,-19.21
8699,-3.45,1.55,9.38,5.93,4.45,-18.74
8700,-3.44,1.6,9.39,5.68,4.33,-18.46
8701,-3.47,1.59,9.43,5.77,4.33,-18.37
8702,-3.45,1.55,9.47,5.9,4.2,-18.33
8703,-3.43,1.54,9.52,6.02,4.17,-18.21
8704,-3.46,1.5,9.46,6.09,4.01,-17.83
8706,-3.47,1.61,9.47,6.27,3.73,-17.52
8707,-3.54,1.58,9.46,6.62,3.42,-17.36
8708,-3.53,1.6,9.55,6.74,3.07,-17.14
8709,-3.54,1.61,9.53,6.71,2.95,-16.86
8710,-3.55,1.7,9.56,6.62,2.86,-16.61
8711,-3.57,1.64,9.57,6.68,2.76,-16.49
8712,-3.62,1.6,9.58,6.71,2.39,-16.3
8713,-3.57,1.57,9.56,6.56,2.35,-15.99
8715,-3.52,1.63,9.54,6.43,2.29,-15.49
8716,-3.51,1.67,9.58,6.37,1.85,-15.2
8717,-3.47,1.57,9.5,6.62,1.79,-14.83
8718,-3.44,1.64,9.52,7.02,1.51,-14.64
8719,-3.39,1.57,9.52,7.4,1.32,-14.23
8720,-3.36,1.57,9.54,7.68,1.29,-13.7
8721,-3.39,1.63,9.5,7.71,1.1,-13.36
8723,-3.42,1.6,9.5,7.9,0.95,-13.14
8724,-3.33,1.6,9.46,7.74,0.76,-12.89
8725,-3.31,1.67,9.59,7.46,0.48,-12.51
8726,-3.32,1.57,9.48,7.53,0.45,-12.39
8727,-3.31,1.56,9.53,7.43,0.41,-11.92
8728,-3.23,1.56,9.49,7.62,0.26,-11.48
8729,-3.24,1.54,9.46,7.87,0.32,-11.35
8730,-3.23,1.59,9.45,8.18,0.1,-10.98
8732,-3.29,1.59,9.55,8.31,0.29,-10.54
8733,-3.32,1.44,9.52,8.15,0.13,-10.13
8734,-3.24,1.41,9.52,8.0,0.32,-9.92
8735,-3.28,1.51,9.63,7.9,-0.09,-9.45
8736,-3.32,1.59,9.69,8.18,-0.49,-9.04
8737,-3.43,1.55,9.67,8.34,-0.56,-8.88
8738,-3.38,1.56,9.78,8.15,-0.99,-8.6
8740,-3.34,1.57,9.75,7.87,-1.18,-8.29
8741,-3.35,1.58,9.54,7.65,-1.31,-7.79
8742,-3.35,1.48,9.63,7.87,-1.09,-7.32
8743,-3.34,1.46,9.75,8.18,-1.34,-7.07
8744,-3.33,1.54,9.75,8.65,-1.5,-7.0
8745,-3.41,1.56,9.62,8.53,-1.71,-6.72
8746,-3.51,1.56,9.56,8.31,-1.71,-6.19
8748,-3.45,1.61,9.7,7.81,-2.09,-6.19
8749,-3.45,1.57,9.61,7.37,-2.56,-6.03
8750,-3.44,1.6,9.74,7.21,-2.56,-5.63
8751,-3.46,1.56,9.71,6.84,-2.81,-5.41
8752,-3.39,1.54,9.69,6.74,-2.81,-5.22
8753,-3.41,1.47,9.67,6.43,-3.15,-4.88
8755,-3.41,1.51,9.63,6.21,-3.19,-4.69
8756,-3.34,1.57,9.62,5.74,-3.31,-4.59
8757,-3.22,1.33,9.6,5.55,-3.25,-4.69
8758,-3.27,1.49,9.67,5.27,-3.56,-4.28
8759,-3.35,1.53,9.78,4.99,-3.91,-3.97
8760,-3.42,1.49,9.76,4.61,-4.03,-3.91
8761,-3.37,1.46,9.72,4.36,-4.12,-3.94
8763,-3.31,1.42,9.8,4.55,-4.25,-4.09
8764,-3.21,1.36,9.6,4.27,-4.37,-3.69
8765,-3.31,1.34,9.59,3.9,-4.31,-3.22
8766,-3.3,1.36,9.62,3.74,-4.28,-3.06
8767,-3.36,1.35,9.71,3.74,-4.34,-2.94
8768,-3.33,1.32,9.71,3.39,-4.12,-3.03
8770,-3.39,1.24,9.75,2.58,-4.44,-2.97
8771,-3.44,1.26,9.83,2.36,-4.59,-2.81
8772,-3.52,1.21,9.78,1.77,-4.53,-2.65
8773,-3.54,1.14,9.82,1.55,-4.72,-2.4
8774,-3.54,1.05,9.87,1.74,-4.34,-2.22
8775,-3.61,1.07,9.92,1.27,-4.34,-2.15
8776,-3.66,1.03,9.97,0.8,-4.88,-1.97
8778,-3.71,0.95,10.09,1.3,-5.38,-1.84
8779,-3.74,0.91,10.1,1.7,-5.44,-1.72
8780,-3.82,0.97,10.15,1.99,-5.78,-1.28
8781,-3.84,0.93,10.1,2.61,-5.85,-1.15
8782,-3.9,0.86,10.08,2.86,-6.22,-1.12
8783,-3.94,0.85,10.11,3.14,-6.69,-0.74
8784,-3.86,0.84,10.11,3.11,-7.13,-0.43
8786,-3.91,0.81,10.11,3.39,-7.66,-0.43
8787,-3.96,0.79,10.29,4.02,-7.88,-0.24
8788,-3.99,0.82,10.23,3.68,-8.47,0.04
8789,-3.98,0.85,10.24,3.77,-9.19,0.1
8790,-3.97,0.82,10.26,3.86,-9.66,0.16
8791,-4.0,0.76,10.22,3.99,-10.2,0.57
8792,-4.07,0.81,10.23,4.02,-10.63,0.76
8794,-4.09,0.75,10.25,4.65,-11.2,0.91
8795,-4.07,0.76,10.3,5.18,-11.39,0.88
8796,-4.07,0.77,10.29,5.46,-12.2,1.04
8797,-4.07,0.73,10.28,5.93,-12.79,1.16
8798,-4.07,0.74,10.32,6.4,-13.39,1.29
8799,-4.05,0.71,10.3,6.81,-13.92,1.51
8800,-4.05,0.83,10.3,6.93,-14.36,1.67
8802,-3.97,0.89,10.29,6.84,-14.92,1.63
8803,-4.0,0.94,10.28,6.93,-15.2,1.7
8804,-3.89,0.89,10.16,6.99,-15.77,1.79
8805,-3.85,0.94,10.21,6.9,-16.02,1.98
8806,-3.83,1.02,10.13,6.24,-16.33,2.01
8807,-3.85,0.97,10.04,6.18,-16.71,2.1
8808,-3.77,0.99,10.12,5.96,-17.14,2.07
8809,-3.74,0.98,10.21,6.05,-17.61,2.17
8811,-3.7,0.91,10.24,6.02,-17.68,2.23
8812,-3.78,0.88,10.19,5.84,-18.02,2.26
8813,-3.76,0.87,10.13,6.09,-18.24,2.35
8814,-3.76,0.82,10.22,6.02,-18.77,2.45
8815,-3.78,0.77,10.25,6.24,-19.27,2.45
8816,-3.77,0.74,10.27,6.4,-19.68,2.51
8817,-3.81,0.8,10.22,6.74,-20.02,2.38
8819,-3.79,0.81,10.19,6.65,-20.21,2.45
8820,-3.74,0.83,10.22,6.74,-20.99,2.51
8821,-3.75,0.78,10.18,6.87,-21.53,2.42
8822,-3.77,0.84,10.15,6.59,-21.96,2.48
8823,-3.77,0.9,10.18,6.81,-22.06,2.51
8824,-3.77,0.83,10.06,6.77,-22.5,2.7
8825,-3.73,0.81,10.0,6.93,-22.81,2.67
8826,-3.63,0.81,10.0,6.68,-23.31,2.67
8828,-3.69,0.8,10.03,6.74,-23.81,2.73
8829,-3.64,0.72,10.04,6.81,-23.56,2.73
8830,-3.61,0.77,10.0,6.62,-24.12,2.76
8831,-3.56,0.76,9.96,7.28,-24.56,2.92
8832,-3.55,0.77,10.0,7.31,-24.34,2.67
8833,-3.59,0.81,9.98,6.84,-24.5,2.64
8834,-3.5,0.79,10.0,6.81,-25.28,2.95
8836,-3.49,0.72,9.91,7.31,-25.5,2.98
8837,-3.48,0.69,9.82,7.53,-25.59,2.89
8838,-3.41,0.72,9.92,7.46,-25.91,3.1
8839,-3.42,0.71,9.89,7.37,-25.97,3.01
8840,-3.43,0.68,9.9,6.96,-26.1,2.92
8841,-3.42,0.69,9.86,6.99,-26.1,2.89
8842,-3.4,0.66,9.78,6.71,-26.78,3.1
8844,-3.36,0.68,9.77,6.77,-26.88,3.1
8845,-3.3,0.66,9.78,6.68,-26.91,2.98
8846,-3.27,0.67,9.78,7.06,-27.16,2.95
8847,-3.27,0.64,9.82,7.06,-27.1,3.04
8848,-3.32,0.69,9.79,7.02,-27.35,3.17
8849,-3.26,0.64,9.86,7.34,-27.69,3.26
8850,-3.27,0.63,9.87,7.46,-27.82,3.1
8851,-3.23,0.58,9.86,7.68,-27.94,3.1
8853,-3.23,0.63,9.84,7.93,-28.13,3.26
8854,-3.19,0.67,9.84,8.03,-28.29,3.32
8855,-3.22,0.62,9.76,7.87,-28.19,2.98
8856,-3.14,0.59,9.76,7.96,-28.79,2.85
8857,-3.02,0.61,9.78,8.62,-28.76,2.89
8858,-3.08,0.7,9.75,8.68,-28.97,3.14
8859,-3.14,0.69,9.72,8.37,-28.63,3.29
8861,-3.07,0.7,9.8,8.21,-28.88,3.39
8862,-3.06,0.69,9.77,8.12,-28.91,3.36
8863,-2.99,0.7,9.82,7.68,-29.1,3.2
8864,-3.02,0.74,9.74,7.34,-29.07,3.26
8865,-2.98,0.79,9.71,6.81,-29.04,3.2
8866,-2.97,0.74,9.76,6.65,-29.41,3.26
8867,-3.06,0.71,9.86,6.87,-29.51,3.32
8868,-3.11,0.75,9.85,6.87,-29.91,3.23
8870,-3.07,0.69,9.9,7.06,-29.94,3.23
8871,-3.11,0.63,9.97,7.06,-30.32,3.29
8872,-3.19,0.68,9.97,7.28,-30.6,3.26
8873,-3.19,0.72,9.96,6.93,-30.79,3.2
8874,-3.13,0.69,10.04,7.06,-31.23,3.17
8875,-3.13,0.75,10.04,6.93,-31.7,3.01
8876,-3.11,0.72,10.0,6.77,-31.95,2.85
8878,-3.08,0.7,9.97,6.74,-31.82,2.89
8879,-3.15,0.88,10.03,6.46,-32.51,3.07
8880,-3.24,1.01,10.19,5.84,-32.86,2.95
8881,-3.26,0.99,10.25,5.12,-33.26,2.7
8882,-3.07,0.76,9.93,4.61,-33.17,2.23
8883,-3.05,0.9,10.09,4.02,-33.67,2.51
8884,-3.24,1.08,10.3,3.86,-34.04,2.57
8885,-3.39,0.86,10.25,2.77,-34.51,2.17
8887,-3.39,1.02,10.3,1.55,-35.02,2.04
8888,-3.29,0.89,10.19,0.98,-34.98,1.92
8889,-3.31,0.77,10.14,0.67,-35.48,1.88
8890,-3.28,0.68,10.19,0.86,-36.02,2.13
8891,-3.32,0.61,10.2,1.02,-36.08,2.13
8892,-3.42,0.67,10.21,1.08,-36.71,2.07
8893,-3.51,0.7,10.3,1.05,-37.21,2.29
8895,-3.48,0.65,10.34,0.95,-37.99,2.23
8896,-3.56,0.59,10.38,1.05,-38.27,1.95
8897,-3.62,0.62,10.39,1.02,-38.74,2.13
8898,-3.62,0.48,10.37,1.77,-39.21,2.42
8899,-3.61,0.43,10.43,2.36,-39.77,2.38
8900,-3.65,0.5,10.36,2.89,-40.49,2.42
8901,-3.64,0.52,10.33,3.27,-40.84,2.38
8903,-3.65,0.47,10.3,3.3,-41.59,2.7
8904,-3.71,0.53,10.25,3.55,-41.9,2.73
8905,-3.64,0.49,10.22,3.61,-42.59,2.85
8906,-3.55,0.42,10.16,4.08,-42.78,2.89
8907,-3.58,0.51,10.12,4.11,-43.22,2.95
8908,-3.57,0.51,10.15,4.4,-43.72,2.85
8909,-3.51,0.55,10.18,4.55,-43.93,2.79
8911,-3.58,0.6,10.19,4.43,-44.37,2.76
8912,-3.61,0.52,10.14,4.46,-44.53,2.79
8913,-3.55,0.52,10.08,4.43,-45.12,2.95
8914,-3.51,0.48,10.06,4.77,-45.56,2.98
8915,-3.45,0.45,10.08,4.99,-46.06,2.95
8916,-3.47,0.45,10.15,5.27,-46.41,3.01
8917,-3.46,0.52,10.16,5.33,-46.66,3.07
8918,-3.46,0.46,10.12,5.9,-46.81,2.98
8920,-3.43,0.4,10.12,6.05,-47.41,3.1
8921,-3.53,0.46,10.04,6.31,-47.88,3.14
8922,-3.57,0.47,10.03,6.4,-48.29,3.04
8923,-3.54,0.52,10.09,6.43,-48.85,3.2
8924,-3.55,0.49,10.14,6.68,-48.97,3.39
8925,-3.56,0.43,10.02,6.9,-49.35,3.2
8926,-3.62,0.52,10.01,7.21,-49.54,2.98
8928,-3.58,0.5,10.04,6.84,-49.69,3.07
8929,-3.67,0.47,10.02,6.65,-50.35,3.2
8930,-3.79,0.4,9.99,7.09,-50.54,3.32
8931,-3.82,0.39,10.02,7.37,-50.95,3.36
8932,-3.79,0.38,10.0,8.18,-51.42,3.39
8933,-3.84,0.4,10.02,8.71,-51.82,3.61
8934,-3.9,0.39,9.98,9.09,-52.39,3.61
8935,-3.83,0.37,9.96,9.78,-52.35,3.54
8937,-3.7,0.31,9.8,10.78,-52.48,3.7
8938,-3.92,0.59,9.81,11.47,-52.92,3.89
8939,-4.2,0.54,10.05,10.91,-53.92,3.54
8940,-4.16,0.56,9.98,10.5,-54.7,3.48
8941,-4.08,0.67,9.96,10.5,-54.73,3.73
8942,-3.96,0.59,9.9,10.94,-54.92,3.98
8943,-4.02,0.55,9.88,11.25,-55.05,3.86
8945,-4.06,0.51,9.81,11.56,-55.36,3.7
8946,-4.06,0.59,9.82,11.97,-55.77,3.73
8947,-4.12,0.62,9.86,12.16,-56.08,3.73
8948,-4.11,0.59,9.85,11.97,-56.61,3.7
8949,-4.13,0.62,9.79,11.72,-56.83,3.57
8950,-4.12,0.64,9.78,11.88,-57.21,3.61
8951,-4.12,0.61,9.69,12.13,-57.89,3.45
8952,-4.2,0.64,9.62,12.22,-58.14,3.42
8954,-4.27,0.59,9.73,12.28,-58.3,3.45
8955,-4.25,0.65,9.74,12.25,-58.52,3.36
8956,-4.22,0.61,9.59,12.13,-58.9,3.32
8957,-4.24,0.65,9.64,12.06,-59.24,3.17
8958,-4.26,0.68,9.6,12.03,-59.46,2.92
8959,-4.28,0.68,9.59,12.13,-59.71,2.95
8960,-4.27,0.65,9.58,12.06,-60.08,2.82
8962,-4.31,0.62,9.54,12.25,-60.46,2.6
8963,-4.37,0.62,9.53,12.06,-60.96,2.7
8964,-4.41,0.53,9.53,12.0,-61.15,2.54
8965,-4.34,0.62,9.5,12.06,-61.24,2.26
8966,-4.39,0.59,9.44,12.16,-61.52,2.13
8967,-4.34,0.53,9.35,12.28,-61.84,2.13
8968,-4.4,0.63,9.3,12.22,-61.99,2.07
8969,-4.45,0.62,9.31,11.97,-62.28,1.82
8971,-4.47,0.58,9.33,11.75,-62.43,1.7
8972,-4.48,0.55,9.35,11.84,-62.53,1.67
8973,-4.47,0.48,9.21,11.84,-62.68,1.51
8974,-4.49,0.48,9.03,12.06,-62.84,1.38
8975,-4.35,0.49,9.1,12.16,-62.9,1.23
8976,-3.58,0.19,9.2,13.1,-61.93,0.26
8977,-2.44,-0.46,8.61,17.2,-57.8,-2.06
8978,-2.04,-0.86,7.44,21.83,-50.16,-3.09
8980,-3.49,-0.43,6.8,21.36,-44.37,-0.71
8981,-6.52,0.3,7.51,17.2,-45.06,1.16
8982,-6.25,0.68,8.77,14.19,-50.54,0.32
8983,-5.44,1.03,9.3,13.72,-55.11,-2.22
8984,-4.85,1.17,9.07,12.94,-55.01,-3.75
8985,-4.34,0.91,8.41,11.12,-51.95,-4.66
8986,-3.71,0.29,7.53,11.19,-50.26,-5.85
8988,-2.99,-0.15,6.68,14.1,-50.7,-6.63
8989,-2.72,-0.24,5.83,17.73,-50.82,-6.69
8990,-3.11,0.03,5.84,20.14,-49.79,-6.72
8991,-3.33,0.16,6.02,20.17,-48.35,-6.91
8992,-3.3,0.21,6.15,18.98,-46.85,-7.6
8993,-3.08,0.21,6.03,17.57,-45.16,-8.48
8995,-3.14,0.25,5.76,15.94,-42.96,-8.85
8996,-3.39,0.32,5.66,13.44,-40.55,-9.01
8997,-3.95,0.21,5.97,9.56,-38.46,-10.04
8998,-4.14,0.29,6.37,5.02,-36.96,-11.23
8999,-4.36,0.3,6.62,0.8,-35.8,-11.89
9000,-4.61,0.07,6.8,-1.24,-35.05,-12.83
9001,-4.85,-0.19,6.94,-0.71,-34.67,-13.42
9003,-5.05,-0.25,7.29,1.8,-34.7,-13.61
9004,-5.17,-0.58,7.46,5.77,-35.2,-14.23
9005,-5.19,-0.56,7.54,10.15,-35.77,-14.67
9006,-5.15,-0.47,7.53,14.0,-36.08,-14.99
9007,-5.03,-0.38,7.33,16.63,-35.99,-15.42
9009,-5.02,-0.36,7.06,17.73,-35.55,-16.11
9010,-5.0,-0.18,6.67,17.67,-34.95,-16.86
9011,-5.07,0.2,6.5,16.1,-34.45,-17.21
9012,-5.11,0.4,6.52,14.72,-33.89,-17.49
9013,-5.17,0.45,6.5,13.82,-32.73,-17.77
9014,-5.25,0.3,6.54,12.53,-31.45,-18.08
9015,-5.34,0.24,6.6,11.19,-30.6,-18.49
9017,-5.21,-0.01,6.6,10.78,-30.01,-18.93
9018,-5.36,0.06,6.9,11.16,-29.51,-19.3
9019,-5.5,-0.12,6.92,11.56,-29.16,-19.9
9020,-5.81,0.05,7.08,11.84,-28.76,-19.96
9021,-6.04,0.17,7.21,12.31,-28.76,-20.06
9022,-6.15,0.16,7.31,13.19,-29.1,-20.68
9024,-6.01,0.13,7.24,14.32,-29.07,-21.18
9025,-5.96,0.18,7.13,15.16,-28.69,-21.5
9026,-6.13,0.15,6.77,15.26,-28.1,-22.03
9027,-6.15,0.11,6.77,15.16,-27.91,-22.43
9028,-6.02,0.15,6.83,14.88,-27.97,-22.72
9029,-5.9,0.25,6.81,14.38,-27.94,-22.9
9030,-5.91,0.23,6.69,14.63,-27.6,-23.19
9032,-5.96,0.17,6.58,15.41,-26.72,-23.56
9033,-6.08,0.3,6.46,16.16,-26.35,-23.91
9034,-6.17,0.31,6.43,16.6,-26.0,-23.94
9035,-6.17,0.32,6.43,17.23,-25.47,-24.25
9036,-6.06,0.32,6.21,17.82,-24.87,-24.59
9037,-6.22,0.51,6.21,18.14,-24.59,-24.88
9039,-6.33,0.59,6.33,18.35,-23.87,-25.34
9040,-6.35,0.62,6.21,18.04,-22.9,-25.97
9041,-6.52,0.63,5.94,17.17,-22.18,-26.38
9042,-6.47,0.55,5.72,16.48,-22.0,-27.03
9043,-6.43,0.58,5.73,16.01,-21.96,-28.07
9044,-6.42,0.74,5.79,15.26,-21.68,-28.6
9045,-6.34,0.74,5.73,14.41,-20.77,-28.91
9047,-6.35,0.76,5.54,14.1,-19.74,-29.44
9048,-6.41,0.82,5.41,14.16,-18.68,-30.01
9049,-6.58,0.79,5.2,14.29,-17.93,-30.6
9050,-6.61,0.87,5.06,14.66,-17.43,-31.1
9051,-6.56,0.84,5.05,14.91,-16.67,-31.79
9052,-6.5,0.87,5.01,14.19,-15.45,-32.51
9053,-6.52,0.94,4.75,12.6,-14.08,-32.98
9055,-6.64,0.81,4.57,10.72,-12.79,-33.86
9056,-6.63,0.58,4.38,9.47,-11.76,-34.67
9057,-6.74,0.54,4.27,8.15,-10.32,-35.27
9058,-6.88,0.42,4.14,6.81,-8.79,-35.58
9059,-6.96,0.36,4.01,5.68,-7.47,-35.27
9060,-7.08,0.24,3.87,5.96,-6.35,-35.14
9061,-7.1,0.12,3.76,7.06,-5.31,-35.11
9063,-7.14,0.04,3.82,8.97,-4.25,-34.83
9064,-7.32,0.01,3.49,11.38,-3.12,-34.52
9065,-7.32,0.06,3.42,13.94,-2.22,-34.2
9066,-7.3,0.25,3.33,16.04,-1.24,-34.08
9067,-7.3,0.25,3.11,18.23,-0.31,-34.11
9068,-7.27,0.31,2.99,20.04,0.98,-34.2
9070,-7.3,0.5,2.79,20.3,2.51,-34.39
9071,-7.38,0.69,2.62,19.54,4.26,-34.52
9072,-7.37,0.98,2.3,18.2,5.8,-34.83
9073,-7.4,1.13,2.09,16.45,7.86,-35.39
9074,-7.37,1.13,1.74,15.16,10.43,-35.8
9075,-7.61,1.29,1.85,13.41,12.09,-35.7
9076,-7.93,1.49,1.84,11.34,13.97,-35.45
9077,-8.01,1.42,1.7,10.03,15.62,-35.8
9079,-8.02,1.42,1.7,9.31,17.82,-36.21
9080,-8.11,1.31,1.24,8.5,19.94,-36.33
9081,-8.27,1.17,0.99,8.5,22.07,-36.61
9082,-8.34,1.22,1.01,8.37,23.82,-36.77
9083,-8.44,1.25,0.89,7.62,25.73,-36.8
9084,-8.59,1.26,0.61,6.84,27.83,-36.89
9085,-8.65,1.21,0.49,6.4,30.18,-36.89
9087,-8.73,1.3,0.34,5.05,32.21,-36.77
9088,-8.77,1.24,0.12,3.39,34.53,-36.86
9089,-8.97,1.17,-0.25,1.74,38.0,-36.99
9090,-9.02,1.11,-0.35,-0.3,40.48,-36.55
9091,-9.03,1.12,-0.53,-2.21,43.23,-36.33
9092,-9.2,1.09,-0.65,-3.96,45.86,-36.17
9093,-9.43,1.02,-0.91,-5.53,49.02,-35.55
9095,-9.59,1.06,-1.13,-6.93,51.96,-35.17
9096,-9.95,0.91,-1.42,-8.19,54.43,-34.55
9097,-10.1,0.8,-1.65,-8.78,57.41,-34.08
9098,-10.19,0.65,-1.81,-9.0,60.69,-33.33
9099,-10.31,0.55,-2.0,-9.47,63.73,-32.82
9100,-10.44,0.58,-2.19,-9.69,66.83,-31.85
9102,-10.59,0.5,-2.46,-9.66,70.58,-30.95
9103,-10.94,0.38,-2.98,-10.16,74.15,-30.13
9104,-11.14,0.32,-3.14,-10.97,77.56,-29.01
9105,-11.22,0.19,-3.53,-11.72,82.01,-27.94
9106,-11.33,0.13,-3.82,-12.04,85.64,-26.63
9107,-11.67,0.21,-3.96,-12.63,89.68,-25.28
9109,-11.83,0.12,-4.17,-13.82,93.4,-23.65
9110,-10.8,0.42,-3.03,-16.04,95.25,-21.4
9111,-8.05,0.73,-0.54,-19.55,92.68,-18.21
9112,-3.8,1.02,2.72,-22.46,86.98,-14.64
9113,0.81,1.01,5.44,-21.64,80.76,-12.07
9114,4.28,0.62,6.96,-16.79,79.44,-11.64
9116,5.69,0.31,7.23,-11.82,84.89,-12.2
9117,4.48,-0.26,6.3,-10.88,93.99,-12.89
9118,-3.1,1.14,6.48,-12.54,99.41,-11.42
9119,-6.27,0.99,7.36,-16.51,102.38,-11.29
9120,-8.14,1.82,9.02,-21.49,103.35,-10.45
9121,-9.01,2.36,10.99,-25.02,102.51,-8.79
9122,-9.11,2.28,12.34,-24.34,101.69,-7.6
9124,-8.66,2.15,13.2,-19.64,99.85,-7.1
9125,-7.92,1.83,14.26,-14.88,96.81,-7.32
9126,-6.35,1.3,15.17,-9.28,93.37,-7.66
9127,-6.14,1.18,15.03,-3.96,93.09,-8.51
9128,-6.55,1.15,14.8,0.05,94.15,-9.66
9129,-7.26,1.14,14.31,1.61,95.97,-10.73
9130,-8.18,1.23,14.01,1.2,97.34,-11.7
9132,-8.95,1.38,13.81,-0.17,97.41,-12.45
9133,-9.63,1.46,13.49,-1.36,96.84,-13.3
9134,-9.42,1.32,13.33,-2.93,95.56,-14.02
9135,-9.17,1.14,12.96,-3.55,94.49,-14.77
9136,-8.8,0.83,12.51,-3.12,94.34,-15.83
9137,-8.51,0.5,12.0,-1.89,94.62,-16.52
9139,-8.5,0.2,11.3,-0.71,95.34,-16.99
9140,-8.72,0.16,10.67,-0.2,95.06,-16.8
9141,-9.04,0.16,10.23,-0.27,94.59,-16.58
9142,-9.04,0.24,10.18,-1.24,93.37,-16.14
9143,-8.81,0.25,10.19,-2.52,91.9,-15.89
9144,-8.38,0.37,10.15,-4.27,90.36,-15.96
9145,-7.86,0.46,10.07,-5.96,89.02,-15.77
9147,-7.41,0.54,9.81,-7.34,88.83,-15.49
9148,-7.17,0.58,9.49,-7.81,88.61,-15.24
9149,-6.89,0.78,8.91,-7.9,88.39,-14.89
9150,-6.8,0.92,8.77,-8.31,87.33,-13.95
9151,-6.72,1.07,8.77,-7.94,86.45,-13.2
9152,-6.59,1.17,8.68,-7.22,85.54,-12.42
9153,-6.47,1.26,8.73,-6.15,84.92,-11.42
9155,-6.39,1.34,8.7,-4.84,84.07,-10.89
9156,-6.42,1.5,8.76,-4.12,82.76,-10.42
9157,-6.51,1.56,8.73,-3.43,81.94,-9.76
9158,-6.62,1.64,8.75,-2.93,81.01,-9.01
9159,-6.74,1.76,8.91,-2.27,79.91,-8.26
9160,-6.72,1.93,9.11,-2.27,78.81,-7.72
9162,-6.82,2.03,9.29,-2.61,77.72,-7.25
9163,-6.96,2.19,9.49,-2.65,77.12,-6.82
9164,-7.3,2.53,9.86,-2.05,75.94,-6.66
9165,-7.61,2.85,10.19,0.73,75.56,-7.63
9166,-8.31,3.03,10.23,1.64,75.25,-8.54
9167,-9.04,3.18,10.51,-0.86,74.18,-9.26
9168,-9.32,3.61,11.1,-4.27,71.27,-10.13
9170,-9.24,4.19,11.6,-7.0,69.14,-10.2
9171,-9.37,4.18,12.17,-16.23,68.39,-7.44
9172,-10.97,5.18,12.93,-29.09,70.05,-1.56
9173,-15.39,5.6,13.57,-37.17,77.25,0.88
9174,-21.04,4.46,14.21,-50.31,85.95,-1.9
9175,-24.57,3.24,15.91,-65.43,83.7,-4.69
9177,-24.39,2.28,17.82,-71.47,69.8,-6.13
9178,-21.64,1.01,19.04,-64.77,53.56,-5.63
9179,-16.13,-3.46,16.73,-47.4,40.91,-3.5
9180,-15.3,-4.57,13.62,-27.97,34.84,-0.24
9181,-15.33,-4.78,10.41,2.17,31.65,6.48
9182,-14.77,-4.71,8.87,30.15,26.95,13.09
9183,-12.86,-4.08,9.0,54.25,19.0,18.03
9185,-10.2,-3.1,9.64,70.09,11.49,21.41
9186,-7.38,-2.17,10.02,76.44,7.14,22.85
9187,-2.82,-1.28,9.27,75.97,6.52,22.1
9188,-1.3,-0.8,8.61,72.19,7.68,20.32
9189,-0.26,-0.25,7.73,65.46,9.8,18.38
9190,0.44,0.38,7.07,58.1,11.71,17.06
9191,0.88,0.9,6.58,49.28,13.78,15.59
9192,1.07,1.3,6.19,41.05,15.94,13.97
9193,1.12,1.7,5.96,31.03,18.16,11.81
9194,1.15,2.03,6.03,20.98,20.1,9.77
9195,1.05,2.03,6.04,11.25,22.07,7.42
9196,0.91,1.97,6.12,2.83,24.17,5.2
9198,0.51,2.02,6.1,-3.68,26.42,3.42
9199,-0.06,1.97,6.14,-10.09,29.33,2.04
9200,-1.85,1.67,6.54,-15.95,32.28,1.2
9201,-2.94,1.54,6.95,-19.99,34.53,0.79
9202,-4.15,1.41,7.51,-22.93,36.41,0.73
9203,-5.35,1.31,8.2,-24.4,37.56,1.16
9204,-6.58,1.21,8.86,-24.24,38.0,1.79
9205,-7.63,1.02,9.55,-23.18,37.6,2.67
9207,-8.56,0.59,10.3,-21.02,36.44,3.23
9208,-10.08,-0.01,11.28,-17.2,34.59,3.98
9209,-10.52,-0.3,11.57,-11.07,31.87,4.92
9210,-10.66,-0.52,11.68,-2.93,28.55,5.73
9211,-10.72,-0.62,11.58,7.62,24.26,6.95
9212,-10.54,-0.61,11.35,16.63,20.69,7.86
9213,-10.09,-0.59,10.99,26.09,17.1,8.68
9215,-9.52,-0.46,10.52,34.5,13.21,9.27
9216,-8.78,-0.14,9.97,39.39,10.62,9.61
9217,-6.88,0.64,8.76,43.71,8.02,10.05
9218,-5.86,1.1,8.31,45.71,6.64,10.93
9219,-4.87,1.44,7.8,46.02,6.3,11.34
9220,-3.97,1.36,7.28,44.58,7.14,11.27
9221,-3.24,1.65,6.94,42.14,8.21,10.93
9222,-2.71,1.82,6.75,39.86,9.68,10.27
9224,-2.33,1.96,6.57,36.35,11.65,9.77
9225,-2.09,2.24,6.58,31.78,13.18,9.74
9226,-2.33,2.2,6.48,25.8,14.75,8.74
9227,-2.71,2.16,6.58,19.39,16.81,7.52
9228,-3.18,2.15,6.88,12.91,18.57,6.83
9229,-3.64,2.08,7.21,7.4,20.07,6.39
9230,-4.07,1.88,7.55,3.36,21.04,5.8
9231,-4.5,1.52,7.93,0.89,21.54,5.2
9233,-5.04,1.19,8.23,-0.36,22.04,4.64
9234,-5.5,0.99,8.43,-0.86,22.38,4.67
9235,-6.39,0.4,8.91,-0.08,22.2,4.92
9236,-6.67,0.04,9.2,2.42,21.2,5.01
9237,-6.91,-0.12,9.43,6.09,19.69,4.86
9238,-7.06,-0.21,9.6,10.03,18.07,5.3
9239,-7.2,-0.26,9.56,14.22,16.47,6.02
9240,-7.13,-0.46,9.57,19.23,14.78,6.2
9242,-6.89,-0.44,9.52,24.83,13.03,6.39
9243,-6.68,-0.32,9.52,30.06,11.15,7.05
9244,-6.28,0.08,9.11,34.44,9.33,7.55
9245,-6.06,0.19,8.82,37.48,8.18,8.05
9246,-5.74,0.28,8.48,40.54,7.55,8.08
9247,-5.37,0.45,8.37,42.61,7.11,7.99
9248,-5.02,0.83,8.33,43.02,6.3,8.36
9249,-4.75,1.17,8.23,42.2,5.27,8.71
9250,-4.62,1.27,7.91,40.39,5.05,7.96
9252,-4.49,1.3,7.62,37.63,5.77,7.08
9253,-4.4,1.89,7.68,33.78,6.36,6.74
9254,-4.48,2.05,7.59,29.47,7.05,6.48
9255,-4.57,1.96,7.65,24.68,8.33,5.83
9256,-4.8,1.82,7.64,19.89,9.24,5.17
9257,-5.05,1.71,7.64,15.57,9.8,4.61
9258,-5.15,1.6,7.66,12.97,10.12,4.2
9259,-5.21,1.32,7.8,11.31,9.99,3.79
9261,-5.38,1.1,8.09,9.94,9.71,3.48
9262,-5.5,0.81,8.2,9.84,9.33,3.17
9263,-5.79,0.79,8.41,11.38,8.8,3.1
9264,-5.88,0.63,8.68,12.88,8.43,3.14
9265,-6.03,0.63,8.84,14.72,7.58,3.17
9266,-6.08,0.6,8.96,16.88,6.61,3.07
9267,-6.14,0.63,9.05,18.73,5.58,2.89
9268,-6.1,0.56,8.95,20.45,4.51,3.17
9270,-5.97,0.5,8.99,21.8,3.01,3.42
9271,-5.79,0.55,8.98,23.36,1.98,3.17
9272,-5.65,0.59,8.7,24.65,1.63,2.79
9273,-5.59,0.72,8.64,24.93,0.82,2.35
9274,-5.38,0.78,8.56,24.83,0.01,2.29
9275,-5.29,0.92,8.33,25.11,-0.24,2.1
9276,-5.28,1.05,8.34,24.4,-0.52,2.04
9277,-5.32,1.16,8.36,22.61,-0.71,1.79
9278,-5.32,1.24,8.23,20.95,-0.46,1.35
9280,-5.37,1.32,8.13,19.83,-0.31,0.88
9281,-5.31,1.57,8.24,18.42,-0.34,0.6
9282,-5.33,1.63,8.11,16.98,-0.27,0.38
9283,-5.38,1.59,7.86,16.2,0.26,0.16
9284,-5.56,1.69,7.77,14.82,0.88,0.07
9285,-5.62,1.63,7.82,13.72,1.51,-0.46
9286,-5.52,1.54,7.83,13.85,1.79,-1.0
9288,-5.53,1.57,7.97,13.32,1.57,-0.68
9289,-5.65,1.73,8.29,11.63,0.7,-0.24
9290,-5.74,1.64,8.42,10.47,-0.06,-0.37
9291,-5.78,1.63,8.29,10.19,-0.15,-0.43
9292,-5.72,1.51,8.36,9.15,-0.27,-0.4
9293,-5.58,1.31,8.33,8.5,-0.34,-0.62
9294,-5.57,1.29,8.26,8.93,-0.59,-0.84
9296,-5.51,1.35,8.41,9.65,-1.43,-1.12
9297,-5.43,1.2,8.49,9.18,-1.43,-1.12
9298,-5.55,1.14,8.29,8.65,-1.31,-1.21
9299,-5.36,1.14,8.36,8.75,-1.93,-1.21
9300,-5.28,1.03,8.2,8.43,-1.28,-0.93
9301,-5.31,0.88,8.12,8.5,-0.71,-0.71
9302,-5.25,0.84,8.07,9.62,-0.74,-0.87
9304,-5.24,0.82,8.02,10.31,-0.31,-0.62
9305,-5.32,0.82,8.12,10.15,-0.46,-0.28
9306,-5.45,0.95,8.28,11.12,-1.03,-0.37
9307,-5.32,0.9,8.16,12.63,-0.81,-0.18
9308,-5.39,0.76,8.06,13.22,-0.24,0.04
9309,-5.53,0.82,8.35,13.19,-0.62,0.16
9310,-5.61,1.06,8.36,13.44,-1.24,0.54
9312,-5.62,1.06,8.44,13.13,-1.78,0.69
9313,-5.58,0.96,8.58,12.31,-2.25,0.69
9314,-5.6,0.97,8.43,13.72,-2.65,0.23
9315,-5.39,0.99,8.42,15.04,-2.75,0.19
9316,-5.49,0.95,8.19,13.88,-2.22,0.76
9317,-5.48,0.97,8.02,12.81,-1.62,0.91
9318,-5.39,1.01,8.11,13.53,-2.03,0.79
9319,-5.34,1.17,8.18,14.66,-3.0,0.69
9321,-5.19,1.14,8.36,14.57,-3.19,0.48
9322,-5.33,1.15,7.97,12.72,-2.12,0.63
9323,-5.34,1.22,8.03,11.09,-1.31,0.76
9324,-5.41,1.27,8.15,11.12,-1.37,0.44
9325,-5.44,1.35,8.35,11.91,-2.31,-0.24
9326,-5.34,1.51,8.39,11.47,-2.15,-0.15
9327,-5.34,1.46,8.18,9.81,-1.28,0.44
9329,-5.34,1.25,8.04,8.15,-0.93,0.57
9330,-5.31,1.43,8.31,8.78,-0.96,0.26
9331,-5.23,1.45,8.42,10.31,-1.59,-0.4
9332,-5.38,1.45,7.96,9.09,-1.03,0.01
9333,-5.47,1.41,7.79,7.53,-0.21,0.48
9334,-5.41,1.32,7.8,8.06,-0.56,0.29
9335,-5.35,1.33,8.07,10.62,-1.59,-0.31
9337,-5.22,1.29,8.23,11.56,-1.46,-0.46
9338,-5.35,1.31,8.0,9.97,-0.84,0.19
9339,-5.45,1.27,7.94,9.43,-0.27,0.54
9340,-5.4,1.39,8.24,11.22,-0.81,0.19
9341,-5.35,1.5,8.45,12.38,-1.28,-0.31
9342,-5.26,1.47,8.27,10.37,-0.9,0.04
9343,-5.29,1.21,8.08,7.4,-0.31,0.13
9345,-5.38,1.27,8.02,7.43,-0.27,-0.21
9346,-5.4,1.47,8.2,9.97,-1.34,-1.0
9347,-5.36,1.47,8.16,10.09,-2.22,-0.96
9348,-5.51,1.57,7.73,7.81,-1.18,0.19
9349,-5.59,1.52,7.56,6.37,-0.15,0.98
9350,-5.39,1.53,8.03,7.28,-0.37,0.54
9351,-5.19,1.6,8.39,11.12,-2.12,-1.03
9353,-4.81,1.32,8.47,11.75,-3.72,-2.15
9354,-5.0,1.25,7.68,6.87,-1.43,-1.06
9355,-5.59,1.71,7.47,5.05,1.92,0.26
9356,-5.7,1.87,7.96,8.12,1.95,0.48
9357,-5.57,1.62,8.23,9.06,0.19,0.44
9358,-5.5,1.16,8.15,6.24,-0.52,0.38
9359,-5.44,1.17,8.26,7.46,-1.18,-0.49
9361,-5.15,1.34,8.32,12.75,-2.47,-2.18
9362,-4.69,1.18,8.65,14.32,-2.28,-2.34
9363,-5.32,1.53,7.52,10.31,1.17,0.07
9364,-5.47,1.39,7.63,7.62,2.73,1.41
9365,-5.34,1.4,8.09,9.5,1.85,0.48
9366,-5.37,1.7,8.48,14.1,-0.65,-1.31
9367,-5.24,1.52,8.59,13.94,-1.59,-1.5
9368,-5.4,1.35,7.97,9.31,0.01,-0.37
9370,-5.54,1.35,7.56,7.74,1.2,0.85
9371,-5.58,1.63,7.7,10.75,1.04,1.1
9372,-5.35,1.5,8.76,15.19,-0.31,0.19
9373,-5.14,1.1,8.62,14.0,-0.65,-0.78
9374,-5.2,0.97,8.17,9.81,0.32,-1.0
9375,-5.31,1.3,8.15,8.59,0.88,-0.78
9376,-5.61,1.76,8.14,11.66,0.73,-0.59
9378,-5.84,1.8,8.1,13.94,0.23,-0.43
9379,-5.66,1.45,7.92,12.28,-0.02,0.1
9380,-5.24,1.19,7.89,9.56,0.26,0.07
9381,-5.26,1.39,8.13,10.19,0.6,0.01
9382,-5.46,1.82,8.3,13.63,0.63,0.41
9383,-5.48,1.56,8.35,15.26,-0.09,0.79
9384,-5.38,0.97,8.34,11.47,-0.21,0.57
9385,-5.28,0.75,8.35,8.18,-0.4,-0.34
9387,-5.37,1.1,8.35,11.16,0.79,-0.56
9388,-5.97,1.43,7.89,17.42,1.42,-0.37
9389,-5.57,1.21,8.51,17.73,-0.02,0.1
9390,-5.33,1.21,8.58,12.78,-1.37,1.01
9391,-5.38,1.26,8.52,9.15,-1.46,0.82
9392,-5.54,1.71,8.45,10.03,-1.09,0.19
9393,-5.75,2.14,8.36,12.41,-0.87,0.44
9395,-5.89,1.93,8.28,12.31,-1.12,0.26
9396,-5.58,1.3,8.04,8.28,-1.65,-0.59
9397,-4.67,0.9,8.13,2.55,-2.5,-1.15
9398,-5.0,1.63,7.68,3.68,-1.34,-0.59
9399,-5.57,2.07,7.4,8.4,0.48,0.79
9400,-5.82,1.92,7.84,10.66,0.23,1.41
9401,-5.6,1.53,8.35,7.9,-0.93,0.69
9403,-5.46,1.19,8.51,4.61,-1.71,-0.71
9404,-5.17,1.1,8.62,3.83,-1.9,-1.62
9405,-5.28,1.76,8.27,5.84,-0.49,-0.71
9406,-5.74,1.82,7.83,8.71,1.01,0.66
9407,-6.01,1.64,7.82,10.06,0.48,1.26
9408,-5.57,0.88,8.25,7.43,-1.09,0.07
9409,-4.98,0.31,8.49,3.21,-2.59,-2.03
9410,-4.64,0.62,8.59,2.33,-2.34,-2.4
9412,-5.09,1.63,8.21,5.59,-0.37,-0.49
9413,-6.09,2.01,7.92,8.12,1.35,1.73
9414,-5.96,1.58,8.39,8.09,0.82,2.04
9415,-5.53,1.22,8.76,6.93,-1.53,0.51
9416,-5.25,1.16,8.56,6.43,-3.06,-0.93
9417,-4.98,1.13,8.32,6.46,-3.03,-1.59
9418,-5.0,1.46,8.03,7.87,-1.4,-0.43
9420,-5.37,1.82,7.69,9.12,0.19,0.95
9421,-5.68,1.86,7.63,9.47,0.54,1.01
9422,-5.54,1.07,8.18,8.5,-1.03,-0.31
9423,-4.91,0.57,8.36,3.8,-2.22,-1.62
9424,-4.36,0.37,8.51,-1.08,-2.09,-2.56
9425,-4.59,1.06,8.39,1.74,-0.18,-2.0
9426,-5.47,2.01,7.81,8.5,2.39,0.44
9428,-6.0,2.12,7.55,12.97,2.6,2.7
9429,-6.04,1.76,7.81,13.66,0.26,2.17
9430,-5.35,1.17,9.25,10.5,-2.65,0.19
9431,-5.27,1.23,8.88,6.81,-3.4,-0.93
9432,-5.34,1.31,8.44,5.52,-2.15,-1.28
9433,-5.56,1.89,8.32,6.99,-0.9,-0.15
9434,-5.78,2.19,8.06,8.21,-0.62,1.01
9436,-5.95,1.93,7.86,7.43,-0.74,0.88
9437,-6.13,1.74,7.77,5.84,-1.96,-0.24
9438,-5.23,1.01,7.96,0.36,-2.84,-0.96
9439,-4.98,0.88,7.65,-4.52,-1.84,-0.9
9440,-4.6,1.15,8.03,-2.46,-1.68,-1.65
9441,-4.56,1.57,8.47,3.93,-1.93,-1.97
9442,-4.88,1.92,8.29,7.06,-0.46,-0.53
9444,-5.36,1.87,7.88,7.56,1.67,0.76
9445,-5.85,1.55,8.03,8.12,1.67,0.54
9446,-5.64,1.32,8.39,6.18,-0.62,-0.21
9447,-5.53,1.22,8.16,0.2,-1.03,-0.02
9448,-5.45,1.13,8.17,-3.27,-0.65,-0.4
9449,-5.41,1.53,8.46,1.27,-1.4,-1.59
9451,-5.24,1.84,8.88,5.8,-2.15,-1.93
9452,-5.3,1.83,8.63,5.77,-1.43,-0.43
9453,-5.79,1.48,7.61,4.11,0.1,0.69
9454,-5.73,1.46,7.92,3.74,0.63,0.23
9455,-5.26,1.24,8.27,1.67,-0.56,-0.02
9456,-5.09,0.94,7.93,-1.8,-1.03,0.01
9457,-5.05,0.78,7.85,-0.89,-1.24,-0.96
9459,-4.89,1.49,8.22,4.83,-2.0,-2.22
9460,-4.67,1.46,8.57,7.9,-2.65,-3.06
9461,-4.84,1.72,7.86,8.9,-0.65,-2.25
9462,-5.36,1.76,7.4,9.87,1.82,-1.06
9463,-5.43,1.56,7.5,7.62,2.6,-0.12
9464,-5.39,1.39,7.66,1.67,2.26,0.48
9465,-5.62,1.58,7.85,-2.05,1.32,0.13
9467,-5.78,1.8,8.01,-1.21,0.48,-0.68
9468,-5.92,2.22,8.29,-0.2,0.23,-0.46
9469,-5.88,1.89,8.38,-1.55,0.51,0.19
9470,-5.7,1.59,8.28,-2.71,0.48,0.01
9471,-5.5,1.21,8.22,-2.83,0.04,-1.06
9472,-5.32,0.91,8.08,-3.24,-0.74,-1.97
9473,-4.95,0.74,7.98,-4.43,-0.74,-1.78
9475,-4.62,0.77,7.99,-1.93,-1.46,-2.84
9476,-4.27,0.81,8.49,1.86,-1.21,-2.94
9477,-5.0,1.74,7.9,5.02,1.67,-0.93
9478,-5.5,1.77,7.83,5.77,3.67,0.66
9479,-5.66,1.73,7.99,5.52,4.2,1.1
9480,-5.75,1.63,8.22,5.08,3.04,0.35
9481,-5.61,1.46,8.37,4.93,0.7,-0.84
9482,-5.51,1.13,8.27,3.61,-0.74,-2.03
9484,-5.19,0.84,8.04,1.08,-1.34,-3.5
9485,-4.42,1.32,8.5,0.23,-0.74,-3.69
9486,-5.1,1.84,7.88,2.49,2.35,-2.43
9487,-5.37,1.79,7.86,5.37,4.04,-1.37
9488,-5.24,1.83,8.25,7.56,3.23,-1.34
9489,-5.24,1.74,8.36,9.22,1.54,-2.25
9490,-5.35,1.62,8.13,10.19,0.07,-2.97
9492,-5.23,1.21,7.89,6.34,0.35,-2.65
9493,-5.34,1.06,7.66,1.08,1.98,-1.56
9494,-5.64,1.73,8.01,-0.46,3.48,-0.81
9495,-5.82,2.08,8.39,2.58,3.61,-0.87
9496,-5.86,1.97,8.48,4.49,2.42,-0.68
9497,-5.81,1.67,8.41,3.39,1.42,-0.74
9498,-5.68,1.46,8.28,2.42,0.82,-1.62
9499,-5.45,1.23,8.24,2.61,0.32,-2.56
9501,-5.24,1.24,8.09,3.33,0.04,-3.03
9502,-4.89,0.84,7.99,2.71,0.04,-3.09
9503,-4.84,0.85,7.75,-0.27,1.45,-2.09
9504,-4.96,1.15,7.95,-2.21,3.48,-0.65
9505,-5.24,1.57,8.18,1.89,4.42,-0.56
9506,-5.43,1.9,8.38,6.84,3.83,-0.59
9507,-5.55,1.79,8.55,8.71,3.04,-0.71
9509,-5.58,1.56,8.42,9.15,1.98,-1.37
9510,-5.25,1.21,8.36,8.71,1.26,-2.18
9511,-5.21,1.33,8.1,7.53,1.38,-2.28
9512,-5.49,1.37,7.78,6.93,2.48,-1.68
9513,-5.53,1.38,7.87,7.12,2.6,-1.68
9514,-5.39,1.27,7.97,5.27,1.98,-1.84
9515,-5.26,1.26,7.86,2.05,1.95,-1.37
9517,-5.16,1.19,7.85,2.02,2.29,-1.06
9518,-5.67,1.98,8.28,5.37,2.76,-0.53
9519,-5.71,1.92,8.54,7.56,2.54,0.1
9520,-5.72,1.78,8.6,7.15,1.95,0.38
9521,-5.68,1.47,8.4,5.99,1.6,-0.12
9522,-5.51,1.25,8.27,5.52,1.07,-1.03
9523,-5.34,1.18,8.03,5.27,0.91,-1.5
9525,-5.21,1.19,7.88,4.4,1.32,-1.34
9526,-5.08,1.27,7.89,4.21,1.82,-0.9
9527,-5.17,1.33,7.82,4.68,2.51,-0.46
9528,-5.32,1.57,7.91,5.59,2.6,-0.24
9529,-5.35,1.36,7.84,5.99,2.51,-0.62
9530,-5.23,1.23,7.9,3.9,2.35,-0.81
9531,-5.05,1.27,7.98,1.11,2.17,-0.59
9533,-4.98,1.25,8.27,1.99,2.26,-0.84
9534,-5.19,1.65,8.32,5.93,2.86,-0.81
9535,-5.61,1.9,8.25,8.06,3.2,0.48
9536,-5.78,1.63,8.05,6.62,3.89,1.38
9537,-5.58,1.24,8.12,4.27,4.14,0.98
9538,-5.26,1.31,8.2,4.11,2.92,0.01
9539,-5.25,1.24,8.1,6.12,1.7,-1.09
9540,-5.09,1.11,8.1,6.96,0.82,-1.4
9542,-4.96,1.2,8.11,5.55,1.57,-0.37
9543,-5.05,1.39,7.82,4.61,3.23,0.48
9544,-5.36,1.61,7.91,4.49,4.83,0.88
9545,-5.37,1.6,8.09,4.33,5.05,1.13
9546,-5.35,1.58,8.13,4.49,4.61,1.1
9547,-5.53,1.46,8.03,4.83,4.17,0.85
9548,-5.71,1.47,8.05,5.15,3.76,0.48
9549,-5.5,1.3,8.19,5.15,2.98,0.04
9551,-5.32,1.18,8.21,4.83,1.95,-0.71
9552,-5.03,0.91,8.42,3.33,1.17,-0.68
9553,-5.2,1.5,7.98,3.58,3.14,0.29
9554,-5.44,1.72,7.99,6.21,4.92,1.2
9555,-5.46,1.73,8.23,8.18,5.48,1.7
9556,-5.39,1.63,8.28,8.46,4.98,2.07
9557,-5.43,1.39,8.1,7.65,4.39,1.73
9558,-5.57,1.19,7.96,6.31,4.14,1.26
9560,-5.59,1.36,7.98,4.99,3.67,1.26
9561,-5.46,1.56,8.04,4.65,3.48,1.23
9562,-5.52,1.55,7.99,4.8,3.7,1.16
9563,-5.55,1.62,7.96,4.24,4.08,1.54
9564,-5.35,1.55,8.23,4.77,3.79,0.91
9565,-4.76,1.17,8.74,8.87,0.63,-2.0
9566,-4.36,1.08,8.77,9.65,-0.71,-2.97
9567,-4.84,1.47,7.86,7.31,2.98,-0.74
9569,-5.28,1.65,7.39,6.24,6.67,1.51
9570,-5.38,1.63,7.62,7.56,7.71,2.32
9571,-5.27,1.45,8.09,9.69,6.8,1.73
9572,-5.46,1.13,8.12,10.25,5.27,0.13
9573,-5.47,1.32,8.22,9.53,3.83,-0.71
9574,-5.56,1.53,8.1,8.43,4.11,-0.4
9575,-5.7,1.61,8.02,8.53,4.89,0.07
9576,-5.75,1.4,8.02,8.09,5.14,0.26
9578,-5.59,1.47,8.18,6.02,4.39,0.79
9579,-5.38,1.45,8.36,4.87,3.73,0.66
9580,-5.53,1.72,8.08,6.15,4.08,0.57
9581,-5.69,1.84,8.33,7.62,4.14,0.95
9582,-5.6,1.72,8.24,8.0,3.89,1.38
9583,-5.56,1.6,7.92,7.53,3.7,1.67
9584,-5.51,1.37,7.79,6.68,3.83,1.67
9585,-5.32,1.37,7.93,6.43,3.54,1.45
9586,-5.15,1.47,8.02,6.87,3.54,1.26
9588,-5.2,1.45,7.92,8.18,3.67,0.44
9589,-5.1,1.45,8.21,8.9,3.23,-0.28
9590,-5.14,1.49,8.13,8.34,2.92,-0.06
9591,-5.16,1.53,7.93,7.65,3.95,0.66
9592,-5.16,1.61,7.78,7.93,5.42,1.63
9593,-5.22,1.63,7.87,9.0,6.2,2.26
9594,-5.21,1.62,7.98,10.28,5.92,2.17
9595,-5.35,1.55,8.01,10.81,5.45,1.95
9597,-5.43,1.46,7.93,11.09,5.3,1.7
9598,-5.65,1.53,7.94,11.38,5.36,1.51
9599,-5.2,1.52,8.4,11.25,4.23,0.79
9600,-5.28,1.6,8.27,10.53,4.08,0.82
9601,-5.43,1.62,8.07,8.43,4.73,1.67
9602,-5.49,1.69,7.93,7.74,6.11,2.48
9603,-5.43,1.57,7.81,8.21,6.36,2.7
9604,-5.3,1.58,7.84,9.25,6.24,2.79
9606,-5.29,1.58,7.86,8.93,6.3,2.92
9607,-5.38,1.47,7.91,7.9,6.74,3.07
9608,-5.47,1.49,8.1,7.84,7.05,3.07
9609,-5.55,1.38,8.08,9.06,6.67,2.98
9610,-5.45,1.07,8.13,11.06,5.73,1.67
9611,-4.62,0.77,8.71,12.75,3.83,0.54
9612,-4.74,1.12,8.11,13.85,4.7,1.63
9613,-5.29,1.4,7.59,14.57,7.77,3.92
9615,-5.34,1.49,7.92,15.1,9.15,5.3
9616,-5.4,1.45,8.21,15.54,9.27,4.92
9617,-5.69,1.53,8.34,15.07,8.14,4.29
9618,-5.84,1.59,8.31,13.53,7.61,4.2
9619,-5.83,1.63,8.36,11.12,6.96,3.95
9620,-5.93,1.75,8.25,9.5,6.24,3.7
9621,-5.91,1.67,8.26,8.21,6.08,3.54
9622,-5.87,1.58,8.29,6.68,5.8,3.48
9624,-5.67,1.6,8.23,5.02,5.7,3.45
9625,-5.51,1.7,8.14,4.65,5.89,3.61
9626,-5.44,1.45,8.34,5.15,5.7,3.42
9627,-5.48,1.68,8.21,4.83,6.67,4.11
9628,-5.09,1.45,8.31,6.49,6.3,4.14
9629,-4.78,1.42,8.21,9.94,5.67,3.51
9630,-4.99,1.31,7.91,11.81,5.73,2.89
9631,-5.26,1.4,7.81,11.81,6.27,3.1
9632,-5.53,1.63,7.89,10.37,6.58,3.51
9634,-5.6,1.7,7.97,9.15,6.52,3.73
9635,-5.53,1.89,8.07,8.03,6.33,3.42
9636,-5.42,1.8,8.13,7.02,5.77,3.04
9637,-5.69,2.09,7.76,6.65,7.02,3.7
9638,-5.74,1.57,8.16,5.77,6.2,3.01
9639,-5.2,1.21,8.75,6.37,4.64,1.98
9640,-5.31,1.61,7.88,7.46,5.42,2.64
9641,-5.44,1.52,7.74,8.12,5.86,3.42
9643,-5.34,1.51,8.17,8.43,5.55,3.32
9644,-5.26,1.53,8.16,8.28,5.17,2.82
9645,-5.52,1.67,7.83,6.87,5.83,2.79
9646,-5.58,1.62,7.94,5.37,5.86,2.64
9647,-5.56,1.77,7.99,5.27,5.77,2.48
9648,-5.47,1.76,8.04,5.27,5.73,2.38
9649,-5.36,1.7,7.98,5.24,5.77,2.42
9650,-5.31,1.62,7.9,5.12,6.14,2.29
9652,-5.32,1.63,7.87,5.18,6.36,2.38
9653,-5.41,1.72,8.04,5.37,6.58,2.7
9654,-5.36,1.64,8.07,5.18,6.39,2.89
9655,-5.42,1.65,7.99,5.18,6.2,2.79
9656,-5.37,1.62,8.1,5.46,6.49,2.6
9657,-5.38,1.55,8.11,5.33,6.39,2.42
9658,-5.34,1.66,7.98,5.55,6.52,2.42
9659,-5.42,1.65,7.97,6.12,6.49,2.45
9661,-5.55,1.54,7.94,6.18,6.64,2.48
9662,-5.49,1.67,8.06,5.9,6.52,2.6
9663,-5.53,1.66,8.0,5.87,6.86,2.42
9664,-5.47,1.65,8.06,5.33,6.58,2.23
9665,-5.41,1.63,8.03,5.24,6.52,2.29
9666,-5.4,1.63,8.05,5.27,6.24,2.42
9667,-5.46,1.62,8.09,5.52,6.45,2.45
9668,-5.55,1.7,8.05,5.08,6.83,2.51
9669,-5.56,1.69,8.11,4.58,6.83,2.64
9671,-5.49,1.64,8.21,4.52,7.08,2.7
9672,-5.44,1.65,8.13,4.33,7.52,2.17
9673,-5.21,1.67,8.31,3.83,7.27,1.92
9674,-5.59,1.89,7.69,4.8,7.8,2.82
9675,-6.15,1.69,7.77,5.99,7.11,2.67
9676,-5.11,0.84,9.06,7.96,3.11,0.01
9677,-4.61,1.12,8.24,9.47,2.42,-0.53
9678,-5.24,1.63,7.54,6.27,5.23,1.73
9680,-5.42,1.85,7.77,3.8,7.49,2.95
9681,-5.21,1.78,8.23,4.55,7.96,1.95
9682,-5.32,1.63,8.26,4.02,6.8,0.88
9683,-5.68,1.7,8.16,2.36,6.86,0.85
9684,-5.91,1.73,7.97,1.2,7.27,1.1
9685,-5.84,1.72,7.98,0.86,6.99,1.01
9686,-5.75,1.66,8.09,0.98,6.39,0.82
9687,-5.64,1.56,8.11,1.02,5.67,0.6
9689,-5.62,1.55,8.0,1.23,5.17,0.76
9690,-5.65,1.55,8.09,1.42,5.39,0.88
9691,-5.39,1.48,8.22,1.74,5.23,0.79
9692,-5.27,1.48,8.12,2.42,5.64,0.57
9693,-5.26,1.57,8.07,2.67,6.02,0.63
9694,-5.35,1.61,8.05,2.42,6.33,0.76
9695,-5.45,1.57,8.04,2.46,6.58,0.57
9696,-5.48,1.65,8.04,2.3,6.2,0.66
9697,-5.49,1.76,7.94,2.08,5.95,0.79
9699,-5.58,1.75,7.99,1.55,5.98,0.63
9700,-5.49,1.78,7.95,1.45,5.73,0.57
9701,-5.42,1.77,8.01,1.27,5.73,0.32
9702,-5.43,1.68,8.06,0.92,5.86,0.29
9703,-5.47,1.63,8.02,0.64,6.2,0.38
9704,-5.61,1.66,7.99,0.64,5.83,0.48
9705,-5.55,1.65,8.06,1.27,5.83,0.48
9706,-5.45,1.59,7.98,1.11,5.95,0.29
9708,-5.52,1.74,7.97,0.67,5.48,0.07
9709,-5.79,1.72,7.94,0.39,5.14,-0.12
9710,-5.74,1.64,7.97,-1.36,5.27,-0.02
9711,-5.44,1.6,8.05,-2.74,5.27,0.19
9712,-5.42,1.56,8.17,-1.8,5.27,-0.06
9713,-5.38,1.58,8.28,-0.36,4.95,-0.4
9714,-5.37,1.6,8.17,0.98,5.52,-0.18
9716,-5.4,1.55,8.05,1.05,5.48,0.32
9717,-5.48,1.52,8.01,1.36,5.58,0.23
9718,-5.5,1.58,8.0,1.27,5.8,0.19
9719,-5.55,1.72,7.99,0.89,5.73,0.19
9720,-5.56,1.67,8.01,0.77,5.83,0.07
9721,-5.6,1.74,8.05,0.23,5.55,0.16
9722,-5.63,1.64,8.01,0.14,5.3,0.29
9723,-5.61,1.69,8.05,-0.02,4.83,0.19
9724,-5.56,1.7,8.05,-0.36,4.64,-0.06
9725,-5.52,1.59,7.97,-0.42,4.86,-0.18
9726,-5.44,1.6,7.98,-0.17,5.01,-0.28
9728,-5.42,1.58,8.02,0.17,5.08,-0.46
9729,-5.38,1.64,7.94,0.01,5.48,-0.43
9730,-5.45,1.55,7.89,-0.24,5.98,-0.12
9731,-5.5,1.9,7.79,2.99,6.55,-0.53
9732,-4.59,1.72,8.51,12.28,1.92,-4.56
9733,-3.19,0.69,9.87,12.41,-2.25,-6.63
9734,-4.81,1.37,7.04,4.18,5.14,-2.75
9735,-6.43,1.77,5.78,-1.61,12.15,1.16
9736,-6.43,2.19,7.05,-2.52,13.28,2.48
9737,-5.88,2.31,8.38,-0.08,8.8,0.88
9738,-5.78,1.79,8.66,0.86,5.17,-1.15
9740,-5.87,1.4,8.44,-1.68,4.01,-1.72
9741,-6.21,1.67,8.23,-4.43,4.92,-0.87
9742,-6.05,1.58,8.24,-4.05,5.14,-0.65
9743,-5.84,1.47,8.22,-2.77,4.55,-0.81
9744,-5.72,1.34,8.17,-1.93,3.76,-0.74
9745,-5.64,1.39,8.1,-1.18,3.11,-0.28
9746,-5.66,1.56,7.99,0.55,3.39,-0.21
9748,-5.4,1.53,8.18,2.02,3.23,-0.49
9749,-5.1,1.58,7.98,2.8,3.45,-0.68
9750,-5.13,1.68,7.77,1.86,4.08,-0.71
9751,-5.18,1.8,7.73,1.05,4.98,-0.65
9752,-5.21,1.85,7.67,0.08,5.48,-0.9
9753,-5.43,1.97,7.64,-0.86,5.39,-0.87
9754,-5.58,1.94,7.77,-2.36,5.39,-0.93
9755,-5.59,1.87,7.93,-3.21,5.2,-1.21
9757,-5.55,1.79,7.94,-3.52,5.11,-1.46
9758,-5.49,1.72,7.99,-3.46,4.95,-1.59
9759,-5.46,1.62,8.0,-3.21,5.11,-1.78
9760,-5.46,1.62,8.13,-2.71,4.98,-2.0
9761,-5.4,1.58,8.01,-1.8,4.98,-2.25
9762,-5.38,1.53,8.07,-1.61,4.86,-2.37
9763,-5.37,1.57,8.0,-0.24,5.64,-2.25
9765,-5.37,1.93,7.75,6.9,3.48,-4.84
9766,-3.36,1.15,9.13,9.75,-0.18,-7.22
9767,-5.05,1.66,6.51,4.93,6.3,-4.75
9768,-6.22,1.69,6.2,-1.46,12.96,-1.56
9769,-6.22,2.26,7.33,-3.59,13.31,-0.12
9770,-6.03,2.39,8.3,-1.96,9.02,-0.78
9772,-6.08,1.8,8.42,-0.89,5.55,-2.47
9773,-6.14,1.46,8.42,-3.12,4.2,-3.09
9774,-6.14,1.55,8.37,-5.4,4.92,-2.78
9775,-5.93,1.56,8.35,-5.18,5.39,-2.62
9776,-5.81,1.35,8.21,-3.18,4.64,-2.65
9777,-5.57,1.33,8.11,1.2,2.79,-3.84
9778,-4.68,1.0,8.57,3.86,0.79,-4.59
9780,-4.77,1.39,7.94,3.21,3.67,-3.15
9781,-5.45,1.7,7.16,1.14,7.49,-1.62
9782,-5.46,1.99,7.73,-0.49,8.24,-0.84
9783,-5.53,1.89,8.02,-0.96,7.08,-1.31
9784,-5.53,1.63,7.92,-1.36,6.05,-1.97
9785,-5.69,1.57,7.82,-2.15,6.36,-2.25
9786,-5.86,1.69,7.81,-3.24,6.67,-1.87
9788,-6.16,1.89,7.84,-3.4,6.11,-1.65
9789,-6.35,1.76,8.24,-2.9,4.92,-1.65
9790,-6.16,1.65,8.43,-2.71,3.32,-1.75
9791,-5.86,1.5,8.49,-2.65,2.2,-2.15
9792,-5.53,1.49,8.56,-2.49,1.35,-2.5
9793,-5.24,1.61,8.35,-1.99,1.54,-2.4
9794,-4.9,1.36,8.3,-2.4,2.39,-2.65
9796,-4.61,1.37,8.25,-2.87,3.76,-2.97
9797,-4.47,1.32,7.71,-3.3,5.3,-3.0
9798,-4.73,1.51,7.49,-3.02,7.33,-2.69
9799,-5.15,1.72,7.54,-2.33,8.9,-2.53
9800,-5.58,1.74,7.55,-1.58,9.68,-2.22
9801,-6.0,1.93,7.58,-1.08,9.49,-2.12
9802,-6.27,2.0,7.79,-1.27,7.99,-2.0
9804,-6.3,1.82,8.0,-2.24,6.55,-2.03
9805,-6.09,1.56,8.31,-3.24,5.01,-2.47
9806,-5.78,1.49,8.46,-3.4,3.89,-3.03
9807,-5.5,1.53,8.35,-1.02,3.64,-4.16
9808,-4.43,1.29,8.95,5.21,0.07,-7.35
9809,-3.29,0.87,9.61,5.87,0.35,-8.16
9811,-4.43,1.44,7.25,1.39,7.68,-5.31
9812,-5.6,1.38,6.11,-2.58,13.43,-2.78
9813,-6.0,2.38,7.59,-3.37,12.87,-1.18
9814,-6.11,1.82,7.89,-1.83,9.4,-1.87
9815,-6.11,1.56,8.06,-1.96,7.02,-2.97
9816,-6.1,1.58,8.3,-3.59,6.39,-3.03
9817,-6.3,1.53,8.22,-4.81,6.17,-3.03
9819,-6.34,1.48,8.27,-4.56,5.61,-3.15
9820,-6.09,1.47,8.45,-3.99,4.67,-2.97
9821,-5.7,1.38,8.19,-3.12,3.7,-2.69
9822,-5.67,1.39,8.03,-2.11,3.61,-2.62
9823,-5.62,1.56,7.9,-1.46,3.73,-2.43
9824,-5.49,1.59,7.92,-0.96,4.23,-2.0
9825,-5.27,1.58,7.84,-0.42,4.76,-2.18
9827,-5.14,1.61,7.76,-0.46,5.55,-2.31
9828,-5.26,1.55,7.52,-0.92,6.8,-2.25
9829,-5.37,1.69,7.74,-1.24,7.3,-2.12
9830,-5.43,1.67,7.82,-1.33,6.83,-2.25
9831,-5.61,1.66,7.84,-1.61,6.3,-2.31
9832,-5.74,1.75,7.9,-2.61,5.89,-2.53
9833,-5.74,1.71,8.01,-3.49,5.64,-2.72
9835,-5.75,1.64,8.12,-3.96,5.7,-2.78
9836,-5.63,1.47,8.1,-3.8,5.61,-2.62
9837,-5.53,1.34,8.23,-2.83,5.73,-2.65
9838,-5.49,1.49,8.07,0.23,5.83,-3.06
9839,-4.48,1.15,8.86,5.96,2.1,-5.97
9840,-3.97,0.61,9.05,7.18,2.6,-6.94
9841,-5.35,1.95,6.98,3.58,7.96,-3.62
9843,-6.01,2.24,6.75,-1.27,11.49,-1.4
9844,-6.0,2.16,7.99,-2.8,10.12,-1.15
9845,-5.93,1.68,8.05,-1.86,7.55,-2.5
9846,-5.72,1.42,8.1,-2.05,6.2,-3.31
9847,-5.75,1.54,8.13,-3.33,5.92,-3.25
9848,-5.86,1.6,8.07,-4.12,6.7,-2.81
9849,-5.89,1.45,8.14,-3.49,6.83,-2.78
9851,-5.78,1.34,8.18,-2.43,6.24,-2.78
9852,-5.51,1.36,8.01,-1.21,5.89,-2.59
9853,-5.49,1.48,7.85,-0.33,6.05,-2.43
9854,-5.54,1.59,7.81,0.3,6.24,-2.25
9855,-5.54,1.7,7.81,0.64,6.39,-2.15
9856,-5.52,1.66,7.85,0.64,6.92,-2.0
9857,-5.33,1.65,8.05,0.33,7.49,-1.84
9859,-5.27,1.59,7.98,0.3,8.02,-2.0
9860,-5.37,1.6,7.93,0.39,8.52,-2.06
9861,-5.44,1.62,7.96,0.45,8.33,-2.22
9862,-5.41,1.58,7.98,0.26,8.21,-2.22
9863,-5.39,1.56,7.96,-0.11,8.39,-2.37
9864,-5.51,1.6,7.92,-0.8,8.68,-2.53
9865,-5.46,1.57,8.05,-0.74,8.9,-2.43
9867,-5.47,1.57,8.15,-0.11,9.05,-2.43
9868,-5.49,1.55,8.0,0.33,9.3,-2.56
9869,-5.55,1.6,7.92,0.23,9.93,-2.94
9870,-5.42,1.57,7.95,0.51,10.62,-3.84
9871,-5.32,1.67,8.11,-1.05,10.96,-3.47
9872,-5.45,1.75,7.88,-3.27,11.27,-2.5
9874,-5.59,1.5,7.88,-2.65,11.43,-2.56
9875,-5.56,1.45,7.82,-0.58,10.99,-2.72
9876,-5.42,1.4,7.96,0.23,10.68,-2.37
9877,-5.49,1.31,7.84,0.51,10.74,-2.25
9878,-5.44,1.38,7.89,1.17,10.96,-2.4
9879,-5.46,1.42,8.04,1.3,10.99,-2.43
9880,-5.56,1.51,7.98,0.89,11.18,-2.4
9881,-5.58,1.51,8.05,0.36,11.68,-2.5
9883,-5.55,1.53,8.15,0.3,12.12,-2.4
9884,-5.41,1.48,8.24,0.51,12.31,-2.43
9885,-5.41,1.47,7.95,1.11,12.56,-2.62
9886,-5.42,1.59,7.96,2.71,13.06,-2.75
9887,-4.49,1.07,8.79,6.49,10.55,-4.66
9888,-4.57,0.88,8.15,6.18,13.15,-4.22
9889,-5.86,1.79,6.63,3.52,17.1,-2.18
9891,-6.03,1.94,7.17,1.14,17.35,-1.18
9892,-5.77,1.89,8.17,0.39,15.28,-1.31
9893,-5.73,1.29,8.0,0.67,14.44,-2.72
9894,-5.61,1.3,8.16,0.36,14.47,-3.34
9895,-5.6,1.4,8.21,-0.64,14.81,-3.03
9896,-5.69,1.25,8.08,-1.74,15.31,-2.5
9897,-5.66,1.31,8.11,-0.99,15.66,-2.22
9899,-5.61,1.32,8.16,1.27,15.59,-2.62
9900,-5.54,1.66,8.14,2.55,15.41,-2.56
9901,-5.46,1.68,8.06,2.52,15.62,-1.87
9902,-5.37,1.54,7.9,2.46,16.13,-1.87
9903,-5.31,1.49,7.83,2.27,17.0,-2.25
9904,-5.28,1.49,7.79,1.74,17.66,-2.43
9905,-5.2,1.56,7.81,1.77,18.54,-2.4
9907,-5.18,1.6,7.83,2.3,19.47,-2.28
9908,-5.33,1.62,7.94,2.55,20.35,-2.06
9909,-5.36,1.42,7.94,1.95,20.85,-1.84
9910,-5.41,1.49,7.91,2.05,20.98,-1.9
9911,-5.46,1.52,7.98,2.99,20.95,-2.28
9912,-5.57,1.67,8.09,3.96,20.79,-2.5
9913,-5.62,1.72,8.14,3.64,20.76,-2.4
9915,-5.54,1.71,8.23,2.64,21.13,-2.4
9916,-5.55,1.63,8.09,2.21,21.57,-2.72
9917,-5.28,1.58,8.11,2.58,21.95,-3.03
9918,-5.23,1.72,7.85,3.33,22.76,-3.06
9919,-5.16,1.38,7.78,1.77,23.73,-3.19
9920,-5.31,1.46,7.86,0.17,25.05,-3.0
9921,-5.44,1.58,8.07,1.02,25.7,-3.0
9923,-5.46,1.69,8.09,3.14,25.8,-2.97
9924,-5.53,1.91,8.07,3.86,26.23,-2.69
9925,-5.9,1.91,7.79,3.21,27.92,-2.25
9926,-5.3,1.59,8.38,3.83,28.68,-3.34
9927,-4.96,1.69,8.48,2.8,28.05,-3.31
9928,-5.03,1.4,7.99,2.21,28.05,-3.19
9929,-5.13,1.36,7.7,3.11,28.61,-3.91
9931,-5.19,1.23,7.75,3.08,29.49,-3.72
9932,-5.34,1.38,7.78,2.67,30.65,-3.0
9933,-5.43,1.6,8.06,3.77,30.93,-3.19
9934,-5.45,1.85,8.09,5.74,31.24,-3.56
9935,-5.51,1.89,8.15,5.9,32.02,-3.19
9936,-5.49,1.84,8.08,5.02,32.99,-3.15
9937,-5.45,1.72,8.05,3.83,33.93,-3.5
9939,-5.41,1.62,8.12,3.21,34.22,-3.75
9940,-5.35,1.49,8.06,3.8,34.75,-4.12
9941,-5.23,1.51,7.94,4.4,35.47,-4.28
9942,-5.35,1.37,7.85,3.86,36.44,-4.28
9943,-5.38,1.53,7.86,2.89,37.16,-4.09
9944,-5.39,1.6,8.01,4.02,37.75,-4.16
9945,-5.54,1.63,7.9,5.43,40.01,-3.97
9946,-5.66,1.95,7.85,5.77,41.98,-3.72
9948,-5.14,1.87,8.49,5.77,42.17,-3.81
9949,-5.35,1.34,8.07,5.8,41.63,-4.25
9950,-5.55,1.01,8.03,7.31,41.41,-4.88
9951,-5.58,1.07,8.12,10.0,41.1,-4.59
9952,-5.66,1.08,8.22,13.0,40.82,-4.06
9953,-5.69,1.14,8.1,15.38,41.07,-3.53
9954,-5.68,1.23,8.02,16.79,41.91,-3.15
9956,-5.56,1.36,8.04,17.17,42.98,-3.22
9957,-5.5,1.47,7.98,17.07,43.86,-3.37
9958,-5.41,1.63,8.01,16.85,45.08,-3.41
9959,-5.39,1.71,7.9,16.29,45.89,-3.25
9960,-5.64,1.76,7.5,16.48,48.08,-3.53
9961,-5.27,1.38,7.95,16.51,48.83,-4.34
9962,-5.29,1.52,7.94,15.26,49.08,-4.0
9963,-5.37,1.37,8.13,16.32,49.11,-4.06
9965,-5.38,1.34,8.07,18.45,49.83,-4.53
9966,-5.49,1.8,7.84,19.01,51.02,-4.03
9967,-5.44,1.68,7.79,18.17,51.8,-3.53
9968,-5.56,1.42,7.82,18.29,52.62,-3.75
9969,-5.51,1.37,7.77,19.01,53.84,-3.87
9970,-5.7,1.44,7.67,20.55,55.59,-4.16
9971,-5.5,1.23,8.17,22.36,56.16,-4.47
9973,-5.11,1.23,8.29,23.11,56.56,-4.34
9974,-5.38,1.4,7.9,23.24,58.19,-4.12
9975,-5.57,1.55,7.73,23.49,59.35,-4.09
9976,-5.72,1.58,7.82,24.43,59.97,-4.19
9977,-5.7,1.64,7.88,24.96,60.38,-4.19
9978,-5.94,1.57,7.47,24.65,61.88,-3.94
9979,-5.8,1.14,7.98,25.46,62.04,-4.31
9981,-5.34,1.19,8.39,26.84,61.76,-4.38
9982,-5.29,1.36,8.18,27.68,62.73,-4.56
9983,-5.53,1.61,7.75,27.78,64.23,-4.56
9984,-5.59,1.63,7.63,28.15,66.05,-4.16
9985,-5.74,1.43,7.7,28.46,67.23,-4.31
9986,-5.47,1.35,7.83,29.68,67.77,-4.75
9987,-5.27,1.44,7.82,30.12,68.36,-4.81
9989,-5.15,1.62,7.74,30.94,69.46,-4.31
9990,-5.22,1.72,7.65,31.59,71.71,-4.06
9991,-5.53,1.68,7.42,31.53,74.06,-4.16
9992,-5.62,1.49,7.62,31.69,75.47,-4.56
9993,-5.7,1.34,7.77,32.22,75.75,-4.97
9994,-5.74,1.22,7.77,33.53,75.81,-5.78
9995,-5.66,1.43,7.81,35.04,76.81,-6.03
9996,-5.66,1.55,7.69,35.79,77.72,-5.72
9998,-5.63,1.35,7.61,36.48,78.78,-5.88
9999,-5.59,1.56,7.7,36.7,79.53,-5.88
10000,-5.53,1.68,7.61,36.57,80.79,-5.53
10001,-5.6,1.62,7.66,36.38,81.51,-5.5
10002,-5.64,1.77,7.67,36.7,82.04,-5.91
10003,-5.63,1.85,7.72,36.16,83.2,-6.19
10004,-5.57,1.82,7.8,35.6,84.1,-6.41
10006,-5.58,1.66,7.76,35.94,85.76,-6.91
10007,-5.71,1.68,7.75,36.6,86.29,-7.25
10008,-6.15,1.69,7.71,36.35,86.55,-6.19
10009,-7.72,1.57,7.56,36.19,89.68,-3.34
10010,-5.93,0.38,8.23,44.27,90.77,-4.16
10011,-5.03,0.61,7.6,50.97,91.71,-6.79
10012,-5.54,0.37,7.28,50.06,92.93,-9.1
10013,-5.31,0.61,7.33,46.4,94.46,-10.32
10015,-5.3,1.43,7.25,44.39,96.4,-10.01
10016,-5.46,2.07,6.9,45.87,98.53,-10.63
10017,-5.54,2.0,7.0,46.59,100.13,-12.23
10018,-5.66,2.34,7.5,45.68,100.69,-12.36
10019,-5.65,2.76,7.89,46.4,100.82,-10.54
10020,-5.55,3.74,7.84,50.18,100.63,-6.19
10021,-5.79,3.9,7.9,52.97,100.88,-2.84
10023,-6.35,2.91,7.87,52.41,102.01,-2.43
10024,-6.15,1.99,7.59,51.66,103.63,-3.56
10025,-6.06,1.85,7.75,52.31,103.82,-4.25
10026,-6.18,1.7,7.96,55.13,104.04,-4.22
10027,-6.01,1.79,7.67,56.57,104.92,-4.09
10028,-5.74,2.08,7.4,55.91,106.7,-3.94
10029,-5.68,2.1,7.41,54.79,108.45,-4.22
10031,-5.66,1.95,7.49,56.16,109.83,-4.72
10032,-5.68,1.79,7.56,59.1,111.4,-5.38
10033,-5.76,2.22,7.08,59.14,113.37,-4.94
10034,-5.79,2.14,7.23,58.42,115.56,-4.25
10035,-5.75,2.12,7.16,58.92,116.94,-4.38
10036,-5.99,2.19,7.28,59.64,118.34,-4.81
10037,-6.08,1.97,7.6,61.3,118.5,-5.66
10039,-6.04,1.68,8.15,65.52,118.03,-6.66
10040,-6.08,2.3,7.39,65.83,119.66,-6.1
10041,-5.89,2.43,7.33,63.05,121.76,-5.82
10042,-5.63,2.33,7.34,60.23,122.69,-7.54
10043,-5.73,2.55,7.34,58.6,123.76,-9.29
10044,-6.16,2.59,7.53,59.54,123.91,-10.42
10045,-6.24,2.04,8.11,62.58,126.01,-11.14
10047,-5.93,2.47,7.55,62.08,129.55,-10.35
10048,-5.72,2.39,7.48,60.76,131.65,-10.76
10049,-5.6,2.57,7.56,60.2,131.65,-12.83
10050,-5.79,2.52,7.77,60.32,130.42,-14.73
10051,-5.77,2.48,8.07,60.98,130.3,-15.49
10052,-5.93,2.6,7.9,61.8,132.99,-15.83
10053,-5.93,2.49,7.57,62.05,135.24,-16.68
10055,-5.88,2.4,7.61,61.92,136.65,-17.74
10056,-5.91,2.46,7.73,62.3,137.56,-18.52
10057,-5.98,2.31,7.41,62.39,139.31,-20.15
10058,-5.78,2.47,7.12,62.42,140.38,-22.15
10059,-5.74,2.72,7.21,62.48,141.94,-23.44
10060,-5.8,2.79,7.64,62.89,143.38,-24.37
10061,-5.77,2.64,7.69,63.71,145.6,-25.47
10062,-5.77,2.67,7.38,63.61,147.92,-27.16
10064,-5.32,2.45,7.34,62.83,149.55,-29.35
10065,-5.3,2.64,7.23,61.14,152.02,-30.85
10066,-5.62,2.7,7.18,59.89,154.81,-31.98
10067,-5.83,2.8,7.15,59.51,157.4,-33.08
10068,-5.92,2.78,7.15,58.48,158.94,-34.8
10069,-5.89,2.8,7.22,57.48,160.78,-36.8
10070,-5.79,2.9,7.18,56.16,162.19,-38.24
10072,-5.68,2.86,7.29,55.41,163.54,-39.68
10073,-5.62,2.6,7.41,54.38,164.57,-41.4
10074,-5.63,2.32,7.37,54.75,166.79,-43.97
10075,-5.58,3.4,6.24,51.72,171.64,-44.28
10076,-5.47,3.28,6.61,47.05,175.12,-45.25
10077,-5.06,3.03,7.0,42.67,177.15,-48.19
10078,-4.99,3.02,7.04,37.82,178.87,-51.54
10079,-5.11,2.93,6.96,33.97,181.19,-53.67
10081,-5.24,2.86,7.13,32.31,183.82,-55.23
10082,-5.62,2.91,6.67,30.69,187.64,-56.52
10083,-5.7,2.71,6.73,28.43,191.71,-57.96
10084,-5.45,2.38,6.78,26.49,194.87,-60.96
10085,-5.19,2.39,7.06,26.43,196.34,-63.22
10086,-5.43,2.39,7.35,24.9,200.72,-63.97
10087,-5.82,3.0,5.87,20.86,206.67,-63.4
10089,-5.8,3.16,6.45,17.29,209.8,-64.22
10090,-5.68,2.39,7.0,15.6,211.55,-67.38
10091,-5.5,2.69,6.99,13.35,213.36,-70.7
10092,-5.57,2.93,6.93,9.62,216.15,-72.01
10093,-5.88,3.03,7.09,7.56,219.62,-73.11
10094,-6.23,3.07,6.67,6.71,224.88,-75.14
10095,-6.67,3.63,6.4,4.87,228.51,-76.2
10097,-6.4,3.14,7.08,1.08,229.26,-77.8
10098,-5.68,2.83,7.3,-4.96,231.14,-79.96
10099,-5.29,2.89,6.45,-10.16,235.24,-82.28
10100,-5.34,2.85,6.28,-13.51,239.87,-83.87
10101,-5.44,3.13,6.32,-14.79,244.79,-84.37
10102,-6.18,3.66,5.67,-18.29,254.24,-83.31
10103,-7.22,4.63,5.16,-26.31,264.41,-76.89
10105,-7.8,7.54,3.98,-49.94,277.43,-69.91
10106,-6.9,4.79,4.9,-75.19,284.0,-74.98
10107,-7.22,5.36,6.26,-82.92,283.85,-84.72
10108,-6.84,6.6,5.78,-83.3,284.32,-86.63
10109,-4.19,13.5,9.94,-37.98,261.91,-64.97
10110,4.04,24.0,13.23,-16.01,248.23,-60.02
10111,-2.17,0.43,8.09,-96.73,259.28,-103.96
10113,-8.04,-9.19,6.26,-172.69,274.61,-142.02
10114,-9.84,4.61,2.53,-155.72,286.66,-135.89
10115,-11.95,2.5,4.18,-94.6,284.66,-116.98
10116,-13.25,-1.15,6.72,-58.07,272.55,-109.29
10117,-14.08,-3.5,8.81,-47.68,258.37,-111.01
10118,-14.67,-3.47,9.76,-39.23,250.01,-112.82
10120,-13.73,-2.2,10.11,-23.55,247.51,-111.79
10121,-11.51,-0.26,9.44,-6.9,249.32,-110.01
10122,-10.99,0.38,8.54,1.36,254.49,-109.6
10123,-10.08,1.07,7.62,1.36,260.72,-110.04
10124,-9.16,1.61,6.71,-1.8,266.98,-110.98
10125,-8.29,2.12,6.11,-3.74,272.58,-113.42
10127,-7.51,2.12,5.72,-4.68,276.96,-117.23
10128,-7.07,2.92,5.45,-7.5,280.9,-121.43
10129,-7.63,3.48,5.36,-12.47,284.13,-126.0
10130,-7.71,3.96,5.61,-18.61,286.57,-128.22
10131,-7.09,3.94,6.19,-24.65,288.88,-129.91
10132,-6.51,3.05,6.12,-27.09,292.73,-133.01
10134,-6.14,2.66,6.85,-28.37,296.9,-135.48
10135,-6.6,2.63,7.49,-29.47,302.37,-136.39
10136,-10.18,2.77,6.19,-30.22,309.17,-136.83
10137,-11.24,2.27,6.35,-29.81,314.14,-138.86
10138,-11.58,2.51,7.06,-29.53,315.86,-140.3
10139,-11.43,2.75,7.25,-29.78,316.15,-140.71
10140,-11.24,2.37,7.44,-29.66,317.96,-141.24
10142,-11.32,2.25,6.78,-28.81,321.22,-141.9
10143,-12.4,2.09,6.79,-28.72,324.78,-143.81
10144,-13.62,1.76,5.89,-33.72,328.26,-147.5
10145,-15.89,1.71,4.27,-45.3,332.8,-152.1
10146,-15.24,2.01,4.58,-57.04,333.01,-156.23
10147,-9.98,2.43,8.41,-55.76,326.76,-158.61
10149,-5.55,2.9,10.43,-39.89,322.31,-157.89
10150,-5.34,3.03,9.83,-28.53,326.13,-154.89
10151,-7.78,2.89,8.72,-26.49,334.39,-151.91
10152,-10.38,2.6,8.78,-31.78,339.81,-151.63
10153,-12.44,2.69,8.61,-37.1,341.4,-154.04
10154,-14.06,2.51,7.87,-41.14,341.93,-157.7
10155,-14.66,2.11,7.95,-43.77,340.49,-159.3
10157,-14.19,2.37,8.48,-39.51,339.21,-157.39
10158,-13.66,2.03,7.92,-30.31,338.62,-153.57
10159,-13.42,1.98,7.66,-21.99,338.02,-149.69
10160,-13.38,1.9,7.29,-15.07,336.8,-146.37
10161,-13.26,2.23,7.5,-10.47,335.52,-143.81
10162,-13.22,2.04,7.34,-8.15,335.3,-142.46
10164,-13.37,2.52,7.37,-8.09,335.42,-141.46
10165,-12.61,2.27,8.25,-7.43,334.77,-141.24
10166,-13.13,2.13,7.58,-5.34,336.05,-141.55
10167,-13.71,1.65,7.24,-4.43,338.37,-142.68
10168,-13.33,1.74,7.33,-3.43,338.52,-143.59
10169,-13.22,1.87,6.99,-2.55,337.87,-144.43
10171,-13.33,1.47,6.9,-2.83,337.24,-145.68
10172,-13.34,1.31,6.87,-2.9,337.15,-146.28
10173,-11.97,1.65,6.16,-2.52,336.52,-146.94
10174,-11.94,0.35,6.12,-0.49,336.39,-150.69
10175,-12.4,-0.63,5.56,1.58,337.02,-156.17
10176,-11.93,-0.28,5.72,3.24,336.33,-160.05
10177,-10.74,-2.0,6.22,9.59,334.3,-168.09
10179,-9.18,-4.47,5.89,12.66,337.96,-172.01
10180,-5.76,0.74,4.37,10.31,338.68,-168.72
10181,-5.64,1.98,3.34,10.78,336.52,-165.03
10182,-6.96,2.47,2.83,6.52,336.93,-163.65
10183,-8.84,2.57,2.77,-2.15,341.0,-164.65
10184,-10.13,2.14,3.36,-10.88,343.44,-167.15
10185,-11.05,1.18,5.37,-14.29,343.47,-169.56
10187,-11.56,0.67,6.17,-11.32,343.34,-169.25
10188,-12.47,-0.07,7.76,-8.31,341.75,-168.31
10189,-12.98,-0.33,7.43,-5.62,339.02,-167.72
10190,-12.98,-0.64,7.78,-3.3,333.92,-167.59
10191,-13.02,-1.22,7.44,-7.62,327.98,-169.28
10192,-12.97,-2.58,7.84,-22.83,320.93,-172.73
10194,-13.11,-2.67,9.16,-49.53,308.57,-178.55
10195,-13.33,-4.37,14.17,-106.49,288.17,-189.94
10196,-14.32,-2.96,11.45,-184.05,276.58,-204.31
10197,-17.33,3.9,7.36,-243.04,271.01,-214.01
10198,-21.05,7.43,2.34,-264.08,275.93,-219.45
10199,-23.3,5.54,-1.34,-292.4,283.78,-225.96
10201,-23.45,3.08,-2.76,-309.36,298.74,-231.22
10202,-23.12,6.68,-4.13,-304.61,308.01,-226.53
10203,-22.01,8.38,-1.09,-264.33,311.58,-207.72
10204,-22.15,9.23,2.16,-206.86,312.7,-182.24
10205,-22.82,8.75,4.08,-143.36,319.78,-154.48
10206,-24.73,5.74,1.99,-68.59,328.7,-127.78
10208,-26.47,2.67,4.29,-15.32,321.0,-110.04
10209,-27.49,-2.62,8.8,10.81,306.38,-99.65
10210,-27.91,-2.98,8.78,15.19,293.49,-97.71
10211,-27.2,-1.83,7.72,7.62,284.66,-101.27
10212,-25.82,-0.88,6.84,-3.9,279.97,-106.34
10213,-24.32,0.07,6.1,-19.52,276.65,-111.01
10214,-23.31,0.27,5.52,-36.07,274.08,-115.42
10216,-22.69,0.29,5.06,-50.22,271.26,-119.18
10217,-22.93,1.16,5.32,-61.45,266.82,-121.96
10218,-23.08,1.4,5.99,-68.09,261.84,-123.43
10219,-23.48,1.8,6.21,-70.84,257.21,-124.06
10220,-23.76,1.99,6.48,-70.78,252.02,-123.65
10221,-23.89,2.16,6.66,-69.65,246.26,-122.56
10223,-24.06,2.4,7.52,-67.06,239.4,-120.33
10224,-23.7,4.03,8.24,-63.61,232.83,-115.45
10225,-23.49,5.43,8.67,-65.37,225.13,-107.6
10226,-22.91,5.51,8.85,-75.41,218.47,-103.37
10227,-22.04,4.96,8.11,-87.93,215.3,-103.53
10228,-21.13,5.03,7.65,-99.39,214.52,-104.47
10229,-20.52,5.65,7.33,-111.47,215.93,-103.65
10231,-20.12,6.1,7.33,-125.65,216.37,-101.93
10232,-20.23,6.36,8.79,-142.36,211.8,-100.74
10233,-20.5,5.89,9.57,-156.29,203.85,-101.24
10234,-20.95,4.87,10.33,-168.68,193.8,-103.34
10235,-21.43,4.48,10.51,-176.07,184.13,-103.68
10236,-21.57,4.19,10.54,-178.51,172.93,-100.96
10238,-21.29,3.42,11.1,-174.63,161.88,-97.2
10239,-20.69,2.19,12.27,-166.58,150.74,-93.17
10240,-20.37,1.32,12.71,-155.22,139.31,-89.29
10241,-19.99,0.5,13.39,-144.8,130.61,-86.69
10242,-19.68,-0.15,13.51,-133.94,122.04,-85.28
10243,-19.2,-0.47,13.71,-123.2,112.99,-83.9
10245,-18.45,-0.41,13.97,-112.5,102.88,-80.43
10246,-16.97,0.18,14.16,-101.14,92.37,-76.45
10247,-16.13,0.07,14.01,-87.87,80.19,-73.89
10248,-15.02,0.11,13.45,-77.23,67.83,-71.76
10249,-14.0,0.14,12.7,-71.16,55.69,-69.13
10250,-13.08,0.28,12.09,-67.34,46.11,-67.16
10251,-11.89,0.49,11.38,-64.77,37.35,-66.56
10253,-10.69,0.77,10.59,-63.43,28.83,-66.6
10254,-8.55,1.5,10.38,-62.71,18.88,-65.66
10255,-7.46,1.66,10.09,-62.83,10.52,-64.4
10256,-6.58,1.67,9.58,-63.77,3.83,-63.43
10257,-5.69,1.57,9.46,-65.24,-3.34,-63.59
10258,-4.53,1.4,9.61,-66.96,-11.04,-64.78
10260,-3.42,1.59,9.96,-69.0,-19.08,-65.37
10261,-1.24,2.52,10.71,-70.22,-29.98,-64.28
10262,-0.29,3.17,10.7,-68.28,-40.62,-62.15
10263,0.82,3.61,10.53,-64.65,-51.23,-60.05
10264,2.43,3.57,10.87,-62.02,-62.71,-58.86
10265,4.59,3.83,11.07,-59.14,-74.36,-58.05
10267,6.83,3.61,11.16,-60.27,-83.03,-61.87
10268,10.89,-0.9,11.99,-68.97,-91.66,-74.08
10269,12.36,-0.77,11.18,-73.63,-98.17,-90.51
10270,13.04,-0.62,8.26,-71.56,-95.36,-100.65
10271,12.83,-0.38,3.65,-63.27,-83.24,-105.37
10272,11.62,0.52,-1.73,-50.41,-60.52,-104.72
10274,9.69,0.71,-7.54,-46.71,-31.29,-103.12
10275,4.26,-0.61,-16.66,-51.31,7.08,-102.09
10276,1.39,0.54,-18.23,-54.82,40.16,-99.33
10277,-1.34,2.76,-17.13,-58.61,65.39,-90.57
10278,-3.85,4.98,-13.77,-69.03,80.63,-77.17
10279,-6.54,5.67,-9.36,-93.25,89.93,-64.47
10281,-9.45,5.25,-4.78,-122.23,95.06,-58.21
10282,-14.92,4.37,4.86,-151.31,101.66,-54.92
10283,-16.97,3.93,10.56,-180.04,107.39,-50.63
10284,-18.44,2.89,15.57,-198.16,101.04,-46.38
10285,-19.51,1.14,18.68,-203.3,86.95,-43.15
10286,-20.18,-0.66,20.24,-195.03,71.05,-39.84
10288,-20.3,-2.35,21.04,-173.03,52.15,-34.86
10289,-18.99,-6.23,21.64,-143.67,33.71,-31.1
10290,-18.1,-7.49,21.67,-104.36,13.53,-27.44
10291,-17.17,-7.98,21.71,-63.83,-2.62,-23.12
10292,-16.1,-8.12,21.98,-19.67,-17.96,-18.9
10293,-15.03,-8.04,22.19,27.87,-34.86,-16.05
10295,-14.25,-7.21,21.92,65.21,-49.76,-13.42
10296,-13.39,-3.95,19.37,97.32,-65.22,-8.98
10297,-12.66,-2.45,17.74,117.07,-78.08,-5.97
10298,-11.41,-0.88,16.07,129.05,-89.13,-4.31
10299,-9.83,0.78,14.43,134.63,-97.2,-3.22
10300,-8.16,2.32,12.58,131.4,-102.99,-2.37
10302,-6.53,3.76,10.78,123.26,-105.43,-1.5
10303,-3.68,6.18,7.37,110.09,-105.28,-0.43
10304,-2.72,7.44,5.96,93.97,-103.02,1.2
10305,-1.9,8.32,4.97,76.63,-99.86,3.2
10306,-1.14,8.73,4.25,55.04,-95.8,5.23
10307,-0.66,9.01,4.01,34.25,-91.98,6.92
10308,-0.4,9.19,4.09,13.57,-88.69,8.49
10310,-0.43,8.84,4.39,-4.96,-86.72,8.96
10311,-0.94,7.44,5.91,-19.83,-86.25,9.11
10312,-1.27,6.61,6.75,-30.03,-87.22,9.77
10313,-1.7,5.64,7.74,-35.16,-89.54,10.58
10314,-2.13,4.6,8.45,-34.63,-92.92,11.02
10315,-2.52,3.72,9.01,-30.69,-97.8,11.46
10316,-2.81,2.92,9.65,-24.05,-103.37,11.9
10318,-3.05,2.31,10.14,-15.07,-109.07,12.4
10319,-3.4,1.62,10.58,-4.68,-115.61,12.87
10320,-3.37,1.53,10.58,4.11,-121.49,13.31
10321,-3.29,1.62,10.35,11.22,-126.78,13.87
10322,-3.12,1.89,9.94,16.35,-131.44,14.4
10323,-2.91,2.22,9.39,18.92,-135.26,15.09
10325,-2.56,2.58,8.8,18.61,-138.17,15.81
10326,-2.19,2.97,8.23,16.07,-139.74,15.94
10327,-1.32,3.63,6.98,10.22,-140.46,16.22
10328,-1.01,3.8,6.47,3.33,-140.49,16.66
10329,-0.73,3.9,6.03,-4.59,-139.8,16.88
10330,-0.5,4.06,5.68,-12.82,-138.7,17.09
10331,-0.28,4.05,5.47,-20.7,-137.23,17.38
10332,-0.17,3.92,5.3,-27.5,-135.92,17.63
10334,-0.01,3.65,5.23,-32.66,-134.7,17.91
10335,-0.09,3.07,5.26,-36.42,-133.6,18.47
10336,-0.17,2.78,5.35,-38.11,-133.04,18.88
10337,-0.21,2.4,5.55,-38.33,-132.98,19.25
10338,-0.31,2.16,5.69,-37.1,-133.48,19.88
10339,-0.4,1.91,5.96,-35.04,-134.13,20.6
10341,-0.42,1.66,5.97,-32.82,-134.95,21.41
10342,-0.55,1.38,6.08,-30.28,-136.29,22.04
10343,-0.6,1.34,6.11,-27.47,-137.48,22.67
10344,-0.56,1.33,6.16,-25.78,-138.45,23.07
10345,-0.5,1.33,5.91,-25.06,-139.74,23.73
10346,-0.45,1.28,5.81,-25.09,-140.8,24.39
10347,-0.46,1.25,5.65,-25.68,-141.71,25.08
10349,-0.4,1.21,5.64,-26.68,-142.21,25.61
10350,-0.27,1.13,5.52,-27.97,-142.65,26.14
10351,-0.26,1.04,5.47,-29.28,-143.05,26.89
10352,-0.27,0.8,5.42,-30.69,-143.46,27.83
10353,-0.25,0.63,5.45,-31.57,-143.49,28.64
10354,-0.27,0.46,5.49,-31.85,-143.49,29.65
10356,-0.29,0.3,5.45,-31.53,-143.68,30.46
10357,-0.55,-0.06,5.55,-30.53,-144.15,31.68
10358,-0.58,-0.25,5.49,-29.37,-144.31,32.87
10359,-0.69,-0.38,5.67,-27.5,-144.56,34.0
10360,-0.75,-0.49,5.83,-24.96,-145.12,35.25
10361,-0.83,-0.65,5.88,-22.52,-146.0,36.37
10363,-0.9,-0.78,5.95,-19.67,-146.94,37.53
10364,-1.03,-0.88,6.02,-16.73,-147.66,38.66
10365,-1.16,-0.88,6.07,-14.32,-148.25,39.79
10366,-1.17,-0.83,6.24,-12.04,-148.81,41.16
10367,-1.26,-0.8,6.25,-9.78,-149.6,42.29
10368,-1.33,-0.78,6.28,-8.12,-150.41,43.23
10370,-1.4,-0.72,6.48,-6.68,-151.25,44.17
10371,-1.5,-0.67,6.43,-5.12,-152.32,44.92
10372,-1.57,-0.73,6.41,-3.87,-153.38,45.67
10373,-1.57,-0.63,6.39,-2.77,-154.23,46.08
10374,-1.57,-0.45,6.54,-1.99,-155.29,46.8
10376,-1.67,-0.47,6.51,-0.96,-156.29,47.83
10377,-1.71,-0.53,6.51,0.2,-157.17,48.3
10378,-1.78,-0.38,6.62,1.55,-158.14,48.77
10379,-1.87,-0.41,6.68,2.71,-159.02,49.52
10380,-1.97,-0.44,6.69,3.77,-159.99,49.86
10381,-2.0,-0.43,6.71,4.8,-161.11,50.3
10382,-2.04,-0.36,6.75,5.93,-162.3,50.71
10384,-2.12,-0.33,6.79,6.81,-163.09,51.27
10385,-2.35,-0.27,6.82,7.74,-164.18,51.77
10386,-2.44,-0.22,6.85,8.34,-165.24,52.15
10387,-2.51,-0.24,6.97,8.97,-166.12,52.3
10388,-2.56,-0.14,6.98,9.5,-167.84,52.52
10389,-2.68,-0.09,6.91,9.62,-169.03,52.93
10391,-2.82,-0.09,7.05,10.03,-170.32,53.21
10392,-3.13,-0.09,7.16,10.53,-171.47,53.46
10393,-3.18,-0.05,7.3,10.84,-172.91,53.84
10394,-3.36,-0.04,7.42,11.12,-174.54,54.03
10395,-3.51,-0.09,7.42,11.63,-176.17,54.25
10396,-3.58,-0.08,7.44,12.22,-177.86,54.28
10397,-3.68,-0.07,7.44,12.91,-179.49,54.4
10399,-3.71,-0.16,7.47,13.16,-180.8,54.59
10400,-4.14,-0.05,7.5,14.47,-182.83,54.93
10401,-4.26,-0.04,7.58,15.76,-185.09,55.0
10402,-4.3,-0.11,7.57,15.88,-186.53,54.93
10403,-4.28,0.0,7.64,15.01,-187.5,55.22
10404,-4.3,0.04,7.5,14.44,-188.62,55.22
10406,-4.36,-0.02,7.53,13.97,-189.94,55.06
10407,-4.55,0.05,7.32,12.94,-191.28,55.12
10408,-4.61,-0.02,7.29,11.66,-192.51,55.47
10409,-4.73,-0.13,7.28,10.34,-193.57,55.43
10410,-4.85,-0.11,7.26,8.97,-194.98,55.47
10411,-5.02,-0.1,7.41,8.09,-196.51,55.5
10412,-5.09,-0.29,7.53,7.31,-197.83,55.37
10414,-5.14,-0.39,7.54,6.65,-198.98,55.12
10415,-5.0,-0.82,7.61,6.24,-200.24,54.68
10416,-5.27,-0.72,7.54,6.87,-201.36,54.68
10417,-5.53,-0.57,7.89,8.15,-203.21,54.68
10418,-5.67,-0.76,8.09,8.21,-205.15,54.5
10419,-5.87,-0.79,8.12,8.03,-206.75,54.34
10421,-5.92,-0.78,8.24,8.56,-208.53,54.15
10422,-5.87,-1.0,8.27,9.47,-210.31,53.87
10423,-5.84,-1.11,8.23,10.53,-212.1,53.4
10424,-5.9,-1.13,8.18,11.53,-213.66,53.18
10425,-5.99,-1.18,8.22,12.38,-215.01,52.96
10426,-6.04,-1.21,8.18,12.88,-216.42,52.49
10428,-6.01,-1.21,8.18,13.1,-218.01,52.09
10429,-6.14,-1.31,8.26,12.97,-219.36,51.96
10430,-6.07,-1.57,8.14,12.81,-220.05,51.68
10431,-6.21,-1.41,8.26,13.28,-221.05,51.18
10432,-6.34,-1.3,8.36,14.25,-222.9,50.8
10433,-6.59,-1.47,8.4,14.19,-224.55,50.74
10434,-6.7,-1.68,8.48,13.91,-225.93,50.43
10436,-6.67,-1.74,8.52,14.38,-227.21,50.05
10437,-6.79,-1.87,8.64,15.69,-228.94,49.71
10438,-6.98,-2.02,8.62,16.79,-230.41,49.68
10439,-7.18,-2.37,8.57,19.2,-232.44,49.21
10440,-7.2,-2.51,8.58,22.61,-234.85,48.39
10441,-7.01,-2.58,8.64,25.18,-236.38,47.86
10443,-6.88,-2.47,8.56,26.27,-236.89,47.77
10444,-7.3,-2.05,8.96,27.18,-237.57,47.64
10445,-7.57,-2.1,8.94,27.56,-238.7,46.95
10446,-7.71,-2.08,9.03,26.99,-240.39,46.26
10447,-7.75,-2.06,8.88,26.27,-241.83,45.86
10448,-7.74,-2.15,8.69,26.27,-243.27,45.11
10449,-7.65,-2.29,8.62,26.84,-244.77,44.45
10451,-7.64,-2.26,8.59,27.09,-245.74,43.89
10452,-7.69,-2.32,8.64,27.71,-246.43,43.42
10453,-7.85,-2.3,8.67,28.31,-247.12,43.01
10454,-7.91,-2.28,8.79,29.12,-248.37,42.57
10455,-8.07,-2.49,8.79,30.22,-249.09,41.88
10456,-8.18,-2.5,8.83,31.34,-250.09,41.07
10458,-8.31,-2.5,8.79,32.41,-251.28,40.44
10459,-8.25,-2.67,8.78,33.82,-252.72,39.75
10460,-8.3,-2.7,8.78,35.44,-253.6,39.19
10461,-8.3,-2.74,8.79,37.07,-254.16,38.6
10462,-8.3,-2.83,8.85,38.92,-254.76,37.91
10463,-8.37,-2.78,8.82,40.83,-255.82,37.31
10465,-8.56,-2.76,8.82,41.8,-256.79,36.84
10466,-8.67,-2.9,8.83,42.77,-257.79,36.44
10467,-8.73,-2.88,8.87,44.08,-258.54,35.9
10468,-8.79,-2.9,8.88,45.71,-259.39,35.47
10469,-8.86,-3.06,8.84,48.34,-260.83,34.68
10470,-8.87,-3.18,8.85,51.5,-262.46,33.43
10472,-8.83,-3.08,8.83,53.85,-263.52,32.96
10473,-8.37,-2.52,9.52,54.85,-265.21,33.18
10474,-7.73,-2.27,9.96,55.76,-267.71,33.84
10475,-8.66,-3.31,8.26,57.01,-265.08,31.3
10476,-9.7,-3.38,7.59,56.85,-261.86,28.52
10477,-10.05,-2.82,7.8,54.91,-262.24,28.21
10478,-9.69,-2.47,8.37,53.22,-264.49,28.64
10480,-9.11,-2.49,8.58,53.47,-265.68,27.77
10481,-8.64,-2.78,8.54,54.41,-265.18,26.36
10482,-8.76,-2.8,8.4,54.6,-264.24,25.45
10483,-8.87,-2.9,8.28,54.88,-263.36,24.73
10484,-9.02,-2.85,8.41,55.82,-263.3,23.92
10485,-9.07,-2.84,8.44,56.98,-263.86,23.17
10487,-9.22,-2.85,8.51,57.88,-264.43,22.48
10488,-9.34,-2.97,8.6,58.73,-264.62,21.88
10489,-9.24,-3.0,8.64,59.95,-264.58,21.04
10490,-9.23,-2.98,8.57,61.61,-264.3,20.19
10491,-9.24,-3.09,8.54,63.02,-264.21,19.44
10492,-9.24,-3.03,8.62,64.27,-264.21,18.85
10494,-9.3,-3.03,8.54,65.61,-264.24,18.32
10495,-9.28,-3.06,8.59,66.77,-263.96,17.38
10496,-9.31,-2.98,8.57,67.71,-263.71,16.56
10497,-9.34,-2.92,8.5,68.37,-263.52,16.03
10498,-9.41,-2.89,8.57,68.93,-263.18,15.03
10499,-9.38,-2.84,8.55,69.28,-263.05,14.47
10500,-9.5,-2.84,8.5,70.25,-263.02,14.18
10502,-9.63,-2.99,8.47,72.28,-263.08,13.34
10503,-9.43,-2.95,8.5,74.19,-263.24,12.21
10504,-9.31,-2.8,8.52,74.85,-262.11,11.68
10505,-9.31,-2.81,8.56,75.1,-260.8,10.93
10506,-9.41,-2.66,8.61,75.38,-259.45,9.77
10507,-9.56,-2.53,8.56,75.03,-258.98,9.05
10509,-9.65,-2.5,8.47,74.31,-258.42,8.52
10510,-9.61,-2.52,8.42,73.41,-257.64,7.42
10511,-9.69,-2.41,8.48,72.62,-256.92,6.7
10512,-9.69,-2.43,8.45,72.41,-256.04,6.23
10513,-9.8,-2.41,8.7,72.72,-255.38,5.64
10514,-9.95,-2.35,8.91,73.03,-255.01,5.05
10516,-9.99,-2.32,8.98,73.16,-254.6,4.08
10517,-10.13,-2.31,9.11,73.16,-254.22,3.26
10518,-10.19,-2.32,9.05,73.34,-253.85,2.85
10519,-10.26,-2.41,9.05,74.0,-253.44,2.54
10520,-10.27,-2.46,9.02,75.6,-253.16,2.42
10521,-10.32,-2.5,9.0,77.79,-253.41,2.01
10522,-10.37,-2.51,9.06,80.04,-253.47,1.57
10524,-10.3,-2.51,9.13,81.17,-253.13,1.04
10525,-10.04,-2.4,9.17,81.26,-251.88,0.38
10526,-10.07,-2.1,9.06,81.23,-250.41,0.04
10527,-10.36,-1.72,9.18,82.01,-249.22,0.19
10528,-10.66,-1.68,9.32,81.04,-248.56,0.35
10529,-10.69,-1.71,9.3,78.92,-248.5,0.26
10531,-10.66,-1.59,9.22,76.85,-248.18,0.1
10532,-10.48,-1.68,9.23,75.5,-247.71,-0.12
10533,-10.34,-1.71,9.28,74.69,-246.81,-0.46
10534,-10.26,-1.59,9.34,74.41,-246.49,0.04
10535,-9.62,-1.1,10.36,74.53,-249.81,2.29
10536,-9.47,-1.51,10.11,75.88,-247.59,1.63
10538,-10.63,-2.55,8.76,76.91,-242.05,-0.65
10539,-11.59,-1.86,9.08,75.66,-240.42,-0.74
10540,-11.11,-1.81,9.57,73.85,-241.96,0.41
10541,-10.73,-1.72,9.81,74.28,-242.17,0.82
10542,-10.63,-1.57,10.13,74.85,-241.45,0.82
10543,-10.72,-1.7,10.03,74.57,-240.02,0.88
10545,-10.9,-1.92,9.89,73.69,-239.17,1.2
10546,-11.03,-1.94,9.87,73.75,-238.95,1.6
10547,-10.93,-1.98,9.8,73.85,-238.54,1.95
10548,-10.87,-2.08,9.84,73.85,-237.86,2.35
10549,-10.96,-2.17,9.89,73.78,-237.04,2.7
10550,-11.03,-2.2,9.99,73.97,-236.57,3.26
10551,-11.01,-2.2,10.06,74.5,-236.01,3.54
10553,-11.04,-2.28,10.17,74.82,-235.48,3.79
10554,-11.14,-2.36,10.17,74.78,-234.98,4.42
10555,-11.23,-2.5,10.37,74.88,-234.63,4.79
10556,-11.33,-2.53,10.38,75.1,-234.32,5.11
10557,-11.41,-2.49,10.51,75.66,-234.13,5.73
10558,-11.51,-2.61,10.57,76.16,-233.88,6.14
10560,-11.68,-2.59,10.72,76.82,-233.97,6.36
10561,-11.87,-2.74,10.93,77.66,-234.35,6.8
10562,-11.9,-2.86,10.94,78.07,-234.32,6.92
10563,-11.85,-2.95,10.97,78.13,-234.57,6.77
10564,-11.78,-2.91,10.98,78.73,-234.63,7.11
10565,-12.0,-2.66,11.01,80.23,-234.73,7.8
10567,-12.34,-2.57,11.16,81.61,-235.23,8.46
10568,-12.68,-2.72,11.41,81.2,-235.88,8.64
10569,-12.62,-2.74,11.38,80.7,-236.57,8.71
10570,-12.49,-2.82,11.3,81.17,-237.51,8.83
10571,-12.59,-2.84,11.24,82.08,-237.92,9.24
10572,-12.77,-2.93,11.2,83.7,-238.42,9.8
10573,-12.91,-2.91,11.29,86.36,-239.33,9.83
10575,-12.96,-2.75,11.3,87.84,-239.92,9.87
10576,-12.69,-2.64,11.24,87.71,-239.67,10.02
10577,-12.69,-2.55,11.08,87.68,-239.2,10.18
10578,-12.97,-2.22,11.06,88.31,-239.48,10.4
10579,-12.97,-1.81,11.41,87.96,-243.93,12.46
10580,-11.97,-1.12,12.74,87.9,-246.65,13.9
10582,-12.48,-2.35,11.1,88.34,-241.86,11.84
10583,-14.32,-2.39,9.93,86.68,-238.11,9.9
10584,-13.99,-2.01,10.32,83.33,-239.39,10.43
10585,-13.33,-1.89,10.6,81.51,-241.05,11.02
10586,-12.73,-1.89,10.86,81.64,-241.17,10.96
10587,-12.63,-1.81,11.01,81.33,-240.36,10.49
10589,-12.93,-1.82,11.11,80.01,-239.98,10.12
10590,-13.38,-1.84,10.81,78.57,-240.3,9.9
10591,-13.33,-1.9,10.81,77.51,-240.89,9.96
10592,-13.17,-2.04,10.87,77.66,-241.77,9.9
10593,-13.08,-2.12,10.86,78.45,-242.27,9.65
10594,-12.89,-2.16,10.9,78.82,-242.61,9.43
10595,-12.75,-2.17,10.82,79.07,-242.3,9.33
10597,-12.69,-2.17,10.7,78.95,-242.14,9.18
10598,-12.74,-2.17,10.69,78.38,-241.71,8.83
10599,-12.79,-2.11,10.75,77.51,-241.74,8.55
10600,-12.72,-2.06,10.84,76.1,-241.77,8.52
10606,-12.3,-2.47,10.57,72.75,-241.64,7.36
10607,-12.32,-2.56,10.55,73.41,-241.74,6.92
10608,-12.26,-2.61,10.46,73.88,-241.8,6.64
10610,-12.16,-2.59,10.54,73.81,-241.36,6.58
10611,-12.09,-2.59,10.25,73.88,-240.55,6.27
10612,-12.01,-2.58,10.23,73.88,-240.02,6.05
10613,-11.98,-2.63,10.22,73.5,-239.98,5.7
10614,-11.99,-2.59,10.11,72.62,-239.8,5.64
10615,-11.99,-2.62,10.05,71.97,-239.45,5.55
10616,-11.93,-2.63,9.98,71.4,-238.92,4.95
10618,-11.87,-2.74,9.89,70.59,-238.39,4.45
10619,-11.86,-2.82,10.07,70.06,-238.01,4.36
10620,-11.85,-2.92,10.06,69.9,-237.64,4.11
10621,-11.86,-2.98,10.07,70.37,-237.23,3.86
10622,-11.82,-3.08,10.08,71.12,-236.89,3.45
10623,-11.85,-3.17,10.18,72.0,-236.51,3.23
10625,-11.79,-3.19,10.18,73.09,-236.26,3.01
10626,-11.76,-3.32,10.13,74.31,-236.13,2.73
10627,-11.76,-3.35,10.06,75.75,-235.73,2.45
10628,-11.73,-3.38,9.99,76.57,-235.35,2.38
10629,-11.15,-3.67,9.66,77.23,-234.54,2.01
10630,-10.99,-3.77,9.45,78.73,-234.29,1.73
10631,-11.37,-3.29,10.2,81.29,-238.58,2.79
10633,-10.99,-2.38,11.62,85.27,-240.17,3.79
10634,-12.58,-3.68,9.38,87.18,-235.51,2.45
10635,-12.97,-3.48,9.39,86.05,-232.25,0.63
10636,-12.56,-3.11,9.49,84.21,-232.63,0.35
10637,-11.85,-2.89,9.58,84.46,-233.29,0.66
10638,-11.23,-2.83,9.63,85.64,-232.85,0.48
10639,-10.96,-2.84,9.49,86.15,-231.19,-0.09
10641,-11.14,-2.6,9.11,85.43,-229.5,-0.53
10642,-11.22,-2.48,9.09,84.36,-228.31,-0.56
10643,-11.3,-2.51,9.08,83.27,-227.25,-0.93
10644,-11.26,-2.47,9.09,82.08,-226.46,-1.43
10645,-11.24,-2.42,9.27,80.79,-225.59,-2.09
10646,-11.31,-2.37,9.36,79.92,-224.9,-2.43
10648,-11.47,-2.19,9.27,79.73,-224.33,-2.4
10649,-11.68,-2.25,9.26,79.98,-223.65,-2.43
10650,-11.72,-2.26,9.33,80.2,-223.11,-2.69
10651,-11.56,-2.21,9.24,80.23,-222.24,-2.81
10652,-11.47,-2.11,9.2,80.73,-221.39,-3.12
10654,-11.37,-2.08,9.13,81.54,-220.86,-3.37
10655,-11.42,-1.97,8.85,81.7,-219.92,-3.5
10656,-11.41,-1.83,8.87,81.08,-218.76,-3.44
10657,-11.48,-1.76,8.88,80.39,-217.92,-3.41
10658,-11.42,-1.61,8.85,79.57,-216.98,-3.78
10659,-11.43,-1.58,8.8,78.35,-216.17,-3.97
10661,-11.54,-1.53,8.82,76.72,-215.04,-4.34
10662,-11.53,-1.36,8.79,74.82,-213.94,-4.66
10663,-11.6,-1.2,8.62,73.13,-212.94,-4.91
10664,-11.82,-1.2,8.79,71.28,-212.22,-5.22
10665,-11.97,-1.12,8.86,68.9,-211.57,-5.53
10666,-11.94,-1.14,8.78,66.62,-210.91,-5.88
10668,-11.87,-1.29,8.65,65.24,-209.78,-6.0
10669,-12.35,-0.78,8.76,65.74,-208.97,-5.66
10670,-12.59,-0.9,8.94,65.49,-208.44,-5.63
10671,-12.74,-0.91,8.76,63.83,-208.34,-5.53
10672,-12.7,-0.87,8.78,63.14,-208.15,-5.16
10673,-12.51,-0.93,8.71,63.45,-207.43,-5.03
10675,-12.51,-0.78,8.34,63.77,-206.53,-5.25
10676,-12.64,-0.8,8.1,63.27,-205.68,-5.06
10677,-12.75,-0.76,7.98,62.27,-204.74,-4.75
10678,-12.88,-0.67,7.95,61.42,-204.02,-4.38
10679,-12.95,-0.59,7.91,60.07,-203.15,-3.94
10681,-13.02,-0.47,7.84,58.73,-202.33,-3.69
10682,-13.12,-0.42,7.64,57.41,-201.58,-3.44
10683,-13.18,-0.39,7.58,56.35,-200.86,-3.37
10684,-13.22,-0.34,7.31,55.51,-200.3,-3.31
10685,-13.27,-0.25,7.31,54.44,-199.58,-2.81
10686,-13.35,-0.22,7.34,53.16,-198.83,-2.09
10688,-13.38,-0.25,7.05,51.34,-197.76,-1.59
10689,-13.33,-0.21,7.07,50.03,-196.67,-1.21
10690,-13.45,-0.25,6.97,48.62,-195.73,-0.65
10691,-13.52,-0.27,6.83,47.18,-194.98,0.13
10692,-13.62,-0.31,6.64,45.99,-193.98,1.04
10693,-13.67,-0.42,6.58,45.15,-193.38,1.92
10695,-13.66,-0.52,6.41,44.55,-192.69,2.82
10696,-13.77,-0.65,6.2,43.89,-191.82,3.86
10697,-13.79,-0.69,6.01,43.24,-191.1,5.17
10698,-13.79,-0.8,5.81,43.27,-190.13,6.23
10699,-13.8,-0.81,5.65,43.52,-189.09,7.46
10700,-13.85,-0.78,5.59,43.86,-188.09,8.68
10702,-13.89,-0.8,5.38,44.86,-187.43,9.93
10703,-13.95,-0.72,4.92,45.33,-186.78,11.34
10704,-13.74,-0.68,4.74,44.83,-184.99,12.74
10705,-13.72,-0.73,4.92,44.11,-183.46,14.06
10706,-13.84,-0.7,4.43,44.36,-181.55,15.28
10707,-13.93,-0.69,4.05,44.24,-180.46,16.91
10708,-13.86,-0.68,3.92,43.96,-179.2,18.41
10710,-13.81,-0.64,3.54,43.46,-177.36,19.91
10711,-13.7,-0.58,3.23,42.89,-175.39,21.32
10712,-13.68,-0.53,3.06,41.95,-173.54,22.6
10713,-13.76,-0.56,2.89,40.98,-171.29,23.95
10714,-13.86,-0.56,2.75,39.86,-168.72,25.29
10715,-13.88,-0.58,2.5,38.92,-166.43,26.77
10717,-13.81,-0.63,2.32,37.88,-164.37,27.83
10718,-13.77,-0.8,1.79,36.98,-162.24,28.93
10719,-13.89,-0.78,1.68,35.76,-159.92,30.46
10720,-13.88,-0.82,1.56,34.97,-157.45,31.93
10721,-13.83,-0.89,1.29,34.35,-154.98,33.15
10722,-13.9,-0.98,1.01,33.35,-152.32,34.25
10723,-13.91,-1.13,0.83,32.44,-149.38,35.44
10725,-13.76,-1.28,0.34,32.03,-146.97,36.69
10726,-13.68,-1.37,0.05,31.78,-144.28,37.94
10727,-13.58,-1.5,-0.16,31.66,-141.15,39.32
10728,-13.64,-1.65,-0.33,31.41,-138.45,40.41
10729,-13.64,-1.72,-0.36,31.37,-135.39,41.54
10731,-13.56,-1.77,-1.06,32.34,-132.1,42.73
10732,-13.5,-1.95,-1.28,32.69,-129.53,43.95
10733,-13.37,-2.03,-1.48,32.6,-126.06,45.23
10734,-13.25,-2.05,-1.57,32.38,-122.77,46.11
10735,-13.15,-2.34,-1.91,32.28,-118.83,46.58
10736,-13.26,-2.32,-2.3,32.0,-114.98,47.23
10738,-13.31,-2.35,-2.42,31.03,-111.69,48.17
10739,-13.31,-2.31,-2.52,29.25,-108.0,48.71
10740,-13.21,-2.4,-2.8,27.46,-104.65,48.83
10741,-13.22,-2.45,-2.98,25.58,-100.93,49.05
10742,-13.11,-2.57,-3.17,23.36,-97.05,49.11
10743,-13.09,-2.72,-3.17,21.61,-93.79,49.05
10745,-13.13,-2.75,-3.3,20.55,-89.75,48.89
10746,-13.29,-3.09,-3.7,19.92,-85.97,48.99
10747,-13.21,-3.27,-3.84,19.26,-83.15,48.77
10748,-13.03,-3.33,-3.95,18.79,-79.52,47.99
10749,-12.95,-3.38,-3.95,18.48,-75.3,47.2
10750,-12.98,-3.38,-4.06,17.79,-72.51,47.27
10752,-12.77,-2.86,-3.35,19.26,-73.23,49.64
10753,-12.71,-4.01,-4.57,20.64,-68.1,48.74
10754,-13.6,-4.82,-5.21,18.86,-60.27,44.36
10755,-14.05,-4.16,-5.22,15.16,-54.89,41.48
10756,-13.97,-3.6,-4.78,11.44,-52.73,40.51
10757,-13.46,-3.5,-4.47,9.31,-51.29,39.28
10759,-13.25,-3.58,-4.64,7.62,-48.38,37.41
10760,-13.44,-3.57,-4.52,4.65,-43.97,34.81
10761,-13.64,-3.53,-4.44,1.23,-40.52,32.93
10762,-13.62,-3.61,-4.23,-2.08,-37.58,30.77
10763,-13.57,-3.64,-4.51,-3.68,-34.55,28.68
10764,-13.57,-3.74,-4.62,-5.21,-31.54,26.39
10765,-13.54,-3.8,-4.56,-6.81,-28.88,24.32
10766,-13.6,-3.81,-4.7,-8.62,-25.63,21.98
10768,-13.4,-3.18,-4.61,-10.31,-22.62,20.69
10769,-13.08,-2.6,-4.59,-12.6,-19.49,21.01
10770,-13.27,-2.46,-4.66,-14.63,-16.21,21.57
10771,-14.0,-2.6,-4.43,-17.83,-13.17,21.01
10772,-14.57,-2.55,-4.32,-21.77,-10.07,20.38
10774,-14.76,-2.91,-3.96,-26.71,-7.19,19.1
10775,-14.52,-3.39,-3.88,-30.56,-5.13,17.09
10776,-14.32,-3.43,-3.88,-33.51,-2.93,14.72
10777,-14.02,-3.56,-3.97,-34.82,0.07,12.31
10778,-14.03,-3.92,-3.83,-35.29,2.89,9.49
10780,-14.12,-4.2,-3.58,-36.51,5.36,5.89
10781,-14.41,-4.66,-3.25,-38.29,7.39,1.51
10782,-14.34,-4.67,-3.0,-40.05,8.77,-3.34
10783,-13.78,-4.72,-2.15,-39.8,8.3,-7.38
10784,-13.76,-4.64,-3.09,-40.17,12.53,-12.23
10785,-14.35,-4.78,-3.46,-41.3,16.59,-16.3
10787,-14.43,-4.85,-3.26,-43.15,18.66,-20.12
10788,-14.24,-4.32,-2.35,-44.43,19.72,-24.12
10789,-14.07,-4.04,-2.04,-44.52,21.7,-27.47
10790,-13.57,-3.8,-1.72,-46.68,24.29,-28.82
10791,-8.82,-3.57,0.42,-54.94,35.03,-25.0
10793,1.53,-3.06,2.19,-47.71,64.26,-19.49
10794,6.98,-5.71,-2.02,-2.77,101.85,-20.56
10795,-2.77,-8.57,-3.9,23.21,121.85,-24.0
10796,-12.49,-10.75,-7.06,-5.62,132.71,-23.44
10797,-19.97,-12.6,-9.52,-56.6,143.95,-31.39
10798,-25.19,-13.33,-9.68,-67.12,147.04,-51.67
10800,-27.1,-11.99,-3.85,-47.87,135.37,-65.41
10801,-16.24,-5.73,7.17,-24.18,121.82,-68.19
10802,-9.85,-7.56,6.03,-2.55,114.15,-73.2
10803,-5.09,-7.48,2.52,21.83,107.61,-77.14
10804,-2.49,-7.57,-0.13,51.59,95.87,-77.74
10806,-0.61,-7.29,-1.62,68.84,85.61,-77.3
10807,3.83,-5.66,-3.27,78.41,79.03,-78.24
10808,6.36,-4.66,-3.74,90.25,76.56,-82.65
10809,8.3,-3.86,-4.69,103.64,78.97,-89.82
10810,9.16,-3.0,-4.63,114.47,84.67,-98.93
10811,8.67,-1.87,-4.09,118.44,92.37,-109.72
10812,7.19,-0.05,-3.6,114.6,103.04,-120.93
10814,4.37,2.06,-3.09,103.2,114.09,-131.07
10815,-1.29,6.16,0.39,80.32,122.94,-139.46
10816,-3.68,8.04,3.15,50.65,127.33,-145.15
10817,-5.2,9.62,6.29,16.48,128.64,-150.32
10818,-5.37,10.75,9.55,-17.58,124.42,-155.98
10819,-4.23,11.47,12.55,-50.53,117.5,-162.12
10820,-2.04,11.3,14.61,-85.18,111.8,-169.82
10822,3.36,10.34,15.74,-109.72,110.71,-177.76
10823,5.51,10.6,15.61,-125.15,113.21,-184.56
10824,7.03,10.94,14.69,-135.32,120.13,-187.0
10825,7.86,10.55,13.65,-145.55,131.24,-185.28
10826,8.19,9.56,12.92,-162.89,145.6,-181.3
10827,8.0,8.2,11.54,-179.54,158.62,-178.11
10829,7.47,6.22,10.39,-191.21,171.61,-176.73
